Time,header.seq,header.stamp.secs,header.stamp.nsecs,header.frame_id,orientation.x,orientation.y,orientation.z,orientation.w,orientation_covariance_0,orientation_covariance_1,orientation_covariance_2,orientation_covariance_3,orientation_covariance_4,orientation_covariance_5,orientation_covariance_6,orientation_covariance_7,orientation_covariance_8,angular_velocity.x,angular_velocity.y,angular_velocity.z,angular_velocity_covariance_0,angular_velocity_covariance_1,angular_velocity_covariance_2,angular_velocity_covariance_3,angular_velocity_covariance_4,angular_velocity_covariance_5,angular_velocity_covariance_6,angular_velocity_covariance_7,angular_velocity_covariance_8,linear_acceleration.x,linear_acceleration.y,linear_acceleration.z,linear_acceleration_covariance_0,linear_acceleration_covariance_1,linear_acceleration_covariance_2,linear_acceleration_covariance_3,linear_acceleration_covariance_4,linear_acceleration_covariance_5,linear_acceleration_covariance_6,linear_acceleration_covariance_7,linear_acceleration_covariance_8
402.3,20105,402,300000000,base,-3.8987067276365513e-05,-0.0021288510926169217,-0.04157293381017047,0.9991332031553396,2.6030820491461885e-07,0.0,0.0,0.0,2.6030820491461885e-07,0.0,0.0,0.0,0.0,0.011992241040475452,0.0010453671221755717,-0.001123219000546895,2.5e-05,0.0,0.0,0.0,2.5e-05,0.0,0.0,0.0,2.5e-05,0.035268724097782006,-0.006135403712064787,9.804274524825374,2.5e-05,0.0,0.0,0.0,2.5e-05,0.0,0.0,0.0,2.5e-05
402.32,20106,402,320000000,base,-3.926664227365193e-05,-0.0021286966709553167,-0.04157292575752588,0.9991332038084677,2.6030820491461885e-07,0.0,0.0,0.0,2.6030820491461885e-07,0.0,0.0,0.0,0.0,-0.000623941554453829,0.013324670804313057,0.00017104257629716683,2.5e-05,0.0,0.0,0.0,2.5e-05,0.0,0.0,0.0,2.5e-05,0.03421504993969377,-0.001711363826177766,9.81409269558038,2.5e-05,0.0,0.0,0.0,2.5e-05,0.0,0.0,0.0,2.5e-05
402.34,20107,402,340000000,base,-3.918919714370069e-05,-0.002128810397314311,-0.04157291851774565,0.9991332038704429,2.6030820491461885e-07,0.0,0.0,0.0,2.6030820491461885e-07,0.0,0.0,0.0,0.0,0.008242518154646307,0.006490895001422288,-0.0012337086434781905,2.5e-05,0.0,0.0,0.0,2.5e-05,0.0,0.0,0.0,2.5e-05,0.04474151509573522,-0.00041692368538204195,9.81265945462577,2.5e-05,0.0,0.0,0.0,2.5e-05,0.0,0.0,0.0,2.5e-05
402.36,20108,402,360000000,base,-3.9010916192173636e-05,-0.002128859470977693,-0.04157291149557782,0.9991332040650446,2.6030820491461885e-07,0.0,0.0,0.0,2.6030820491461885e-07,0.0,0.0,0.0,0.0,0.00927294763547695,0.009935771530844155,0.00017511336894404108,2.5e-05,0.0,0.0,0.0,2.5e-05,0.0,0.0,0.0,2.5e-05,0.045038164238062436,0.015754848114884007,9.806010911466457,2.5e-05,0.0,0.0,0.0,2.5e-05,0.0,0.0,0.0,2.5e-05
402.38,20109,402,380000000,base,-3.918549053276053e-05,-0.002128920918238647,-0.04157290369616592,0.9991332042518106,2.6030820491461885e-07,0.0,0.0,0.0,2.6030820491461885e-07,0.0,0.0,0.0,0.0,-0.0021512215558389916,0.005108995305989585,0.0015924795919752758,2.5e-05,0.0,0.0,0.0,2.5e-05,0.0,0.0,0.0,2.5e-05,0.02865737862111591,-0.002670840905109338,9.802195259084758,2.5e-05,0.0,0.0,0.0,2.5e-05,0.0,0.0,0.0,2.5e-05
402.399,20110,402,400000000,base,-3.9356852778590704e-05,-0.0021289316249800453,-0.041572895900058256,0.9991332045466498,2.6030820491461885e-07,0.0,0.0,0.0,2.6030820491461885e-07,0.0,0.0,0.0,0.0,0.0005339883790073082,0.0016178797527802158,0.00463031325856153,2.5e-05,0.0,0.0,0.0,2.5e-05,0.0,0.0,0.0,2.5e-05,0.04462189733941881,-0.0006939637514218999,9.800071243033177,2.5e-05,0.0,0.0,0.0,2.5e-05,0.0,0.0,0.0,2.5e-05
402.42,20111,402,420000000,base,-3.926140479503499e-05,-0.0021286727052414398,-0.041572888669778485,0.9991332054029164,2.6030820491461885e-07,0.0,0.0,0.0,2.6030820491461885e-07,0.0,0.0,0.0,0.0,0.0037609460042878694,0.0035263062987503776,-0.013284407877524232,2.5e-05,0.0,0.0,0.0,2.5e-05,0.0,0.0,0.0,2.5e-05,0.03727427827597957,0.004595170954210649,9.802212850659188,2.5e-05,0.0,0.0,0.0,2.5e-05,0.0,0.0,0.0,2.5e-05
402.44,20112,402,440000000,base,-3.9348663235329534e-05,-0.0021286373754243098,-0.04157288105672555,0.9991332057915251,2.6030820491461885e-07,0.0,0.0,0.0,2.6030820491461885e-07,0.0,0.0,0.0,0.0,-0.0020501239246720833,0.0032118419948353326,-0.0038244754897726937,2.5e-05,0.0,0.0,0.0,2.5e-05,0.0,0.0,0.0,2.5e-05,0.038578542536526164,-0.00931657880630769,9.810818468177075,2.5e-05,0.0,0.0,0.0,2.5e-05,0.0,0.0,0.0,2.5e-05
402.46,20113,402,460000000,base,-3.9455211644894624e-05,-0.002128491958338385,-0.04157287339200996,0.9991332064160421,2.6030820491461885e-07,0.0,0.0,0.0,2.6030820491461885e-07,0.0,0.0,0.0,0.0,0.0065769444762533835,0.0074126053972286875,0.006088091438563231,2.5e-05,0.0,0.0,0.0,2.5e-05,0.0,0.0,0.0,2.5e-05,0.03959157252745629,-0.00656185537145339,9.80285533282271,2.5e-05,0.0,0.0,0.0,2.5e-05,0.0,0.0,0.0,2.5e-05
402.48,20114,402,480000000,base,-3.935431716950255e-05,-0.0021285658745224343,-0.04157286620556841,0.9991332065615723,2.6030820491461885e-07,0.0,0.0,0.0,2.6030820491461885e-07,0.0,0.0,0.0,0.0,0.003773220607484087,0.012481045132944027,-0.002770745314382819,2.5e-05,0.0,0.0,0.0,2.5e-05,0.0,0.0,0.0,2.5e-05,0.047818753254888255,0.0033296271516077636,9.800654691056797,2.5e-05,0.0,0.0,0.0,2.5e-05,0.0,0.0,0.0,2.5e-05
402.5,20115,402,500000000,base,-3.9242966145460945e-05,-0.00212824516823333,-0.04157285900780965,0.9991332075486281,2.6030820491461885e-07,0.0,0.0,0.0,2.6030820491461885e-07,0.0,0.0,0.0,0.0,0.011763263665571637,0.017927312056813915,-0.008928099272074322,2.5e-05,0.0,0.0,0.0,2.5e-05,0.0,0.0,0.0,2.5e-05,0.040482096701640054,0.003175529517123096,9.801591808309333,2.5e-05,0.0,0.0,0.0,2.5e-05,0.0,0.0,0.0,2.5e-05
402.52,20116,402,520000000,base,-3.931628291822499e-05,-0.00212849069448871,-0.041572851453459195,0.9991332073370507,2.6030820491461885e-07,0.0,0.0,0.0,2.6030820491461885e-07,0.0,0.0,0.0,0.0,0.007020959046820897,0.0075153598342749695,-0.002536592568862331,2.5e-05,0.0,0.0,0.0,2.5e-05,0.0,0.0,0.0,2.5e-05,0.047420101746648624,0.0020382992624356873,9.801999746224531,2.5e-05,0.0,0.0,0.0,2.5e-05,0.0,0.0,0.0,2.5e-05
402.54,20117,402,540000000,base,-3.925500928842997e-05,-0.0021284446453797043,-0.04157284417104381,0.9991332077405725,2.6030820491461885e-07,0.0,0.0,0.0,2.6030820491461885e-07,0.0,0.0,0.0,0.0,0.00030677405455823087,0.004635580790902778,-0.0064975119299926,2.5e-05,0.0,0.0,0.0,2.5e-05,0.0,0.0,0.0,2.5e-05,0.05613456498241188,0.009660977202235679,9.794992382156561,2.5e-05,0.0,0.0,0.0,2.5e-05,0.0,0.0,0.0,2.5e-05
402.56,20118,402,560000000,base,-3.9204243399943185e-05,-0.002128233776572523,-0.04157283685148047,0.9991332084963146,2.6030820491461885e-07,0.0,0.0,0.0,2.6030820491461885e-07,0.0,0.0,0.0,0.0,-0.003966482483582512,0.006574170122635517,0.003024230614393127,2.5e-05,0.0,0.0,0.0,2.5e-05,0.0,0.0,0.0,2.5e-05,0.044478583222524036,0.001052562876437519,9.81490779560919,2.5e-05,0.0,0.0,0.0,2.5e-05,0.0,0.0,0.0,2.5e-05
402.58,20119,402,580000000,base,-3.92522565083413e-05,-0.002128198786273004,-0.04157282933020838,0.9991332088819127,2.6030820491461885e-07,0.0,0.0,0.0,2.6030820491461885e-07,0.0,0.0,0.0,0.0,0.006805756158295308,0.009364518500480645,-0.005776401127260902,2.5e-05,0.0,0.0,0.0,2.5e-05,0.0,0.0,0.0,2.5e-05,0.04061762070393838,-0.0018814769176262762,9.80341866960724,2.5e-05,0.0,0.0,0.0,2.5e-05,0.0,0.0,0.0,2.5e-05
402.6,20120,402,600000000,base,-3.9048316398304254e-05,-0.002128229797075114,-0.041572822371836564,0.9991332091133791,2.6030820491461885e-07,0.0,0.0,0.0,2.6030820491461885e-07,0.0,0.0,0.0,0.0,0.0020605470232143734,0.0010571685760265687,-0.009354350675410787,2.5e-05,0.0,0.0,0.0,2.5e-05,0.0,0.0,0.0,2.5e-05,0.04244192088725102,0.003863946763835789,9.811812356138502,2.5e-05,0.0,0.0,0.0,2.5e-05,0.0,0.0,0.0,2.5e-05
402.62,20121,402,620000000,base,-3.905330082267415e-05,-0.0021283013384172144,-0.04157281495651251,0.9991332092693367,2.6030820491461885e-07,0.0,0.0,0.0,2.6030820491461885e-07,0.0,0.0,0.0,0.0,-0.002024234981363183,0.010512862568686542,0.005421127096630564,2.5e-05,0.0,0.0,0.0,2.5e-05,0.0,0.0,0.0,2.5e-05,0.039250821306593894,0.011333660942479043,9.80726275498981,2.5e-05,0.0,0.0,0.0,2.5e-05,0.0,0.0,0.0,2.5e-05
402.64,20122,402,640000000,base,-3.916662922459735e-05,-0.0021281803302470297,-0.041572807285554236,0.9991332098418385,2.6030820491461885e-07,0.0,0.0,0.0,2.6030820491461885e-07,0.0,0.0,0.0,0.0,-0.006411899752551879,-0.004502770535027295,0.0016549169464544248,2.5e-05,0.0,0.0,0.0,2.5e-05,0.0,0.0,0.0,2.5e-05,0.0394585005018885,2.2047428513952052e-05,9.809556722162268,2.5e-05,0.0,0.0,0.0,2.5e-05,0.0,0.0,0.0,2.5e-05
402.66,20123,402,660000000,base,-3.9338399665685416e-05,-0.002128200197861133,-0.04157279949883256,0.999133210116768,2.6030820491461885e-07,0.0,0.0,0.0,2.6030820491461885e-07,0.0,0.0,0.0,0.0,0.009809565531310335,0.0015701800239892704,-0.0011695366958822955,2.5e-05,0.0,0.0,0.0,2.5e-05,0.0,0.0,0.0,2.5e-05,0.04213955180395961,0.00396597849142385,9.801704376704896,2.5e-05,0.0,0.0,0.0,2.5e-05,0.0,0.0,0.0,2.5e-05
402.68,20124,402,680000000,base,-3.9359506991076224e-05,-0.0021282395622105074,-0.041572792047229475,0.9991332103421409,2.6030820491461885e-07,0.0,0.0,0.0,2.6030820491461885e-07,0.0,0.0,0.0,0.0,0.004733593871432586,0.007677561389324147,0.00414665477842096,2.5e-05,0.0,0.0,0.0,2.5e-05,0.0,0.0,0.0,2.5e-05,0.0436149953482277,0.003656105266057823,9.805088295684937,2.5e-05,0.0,0.0,0.0,2.5e-05,0.0,0.0,0.0,2.5e-05
402.7,20125,402,700000000,base,-3.930656725501867e-05,-0.0021281157369019525,-0.041572784745311994,0.9991332109118004,2.6030820491461885e-07,0.0,0.0,0.0,2.6030820491461885e-07,0.0,0.0,0.0,0.0,0.006710673094357421,0.007036236993715696,-0.0045421951263779825,2.5e-05,0.0,0.0,0.0,2.5e-05,0.0,0.0,0.0,2.5e-05,0.04832566645991221,0.0019350734478958298,9.807437802615008,2.5e-05,0.0,0.0,0.0,2.5e-05,0.0,0.0,0.0,2.5e-05
402.72,20126,402,720000000,base,-3.9236712914517115e-05,-0.002128218953681299,-0.041572777501689896,0.9991332109960915,2.6030820491461885e-07,0.0,0.0,0.0,2.6030820491461885e-07,0.0,0.0,0.0,0.0,0.003814759006201396,-0.0028524486530226915,0.00503487420256769,2.5e-05,0.0,0.0,0.0,2.5e-05,0.0,0.0,0.0,2.5e-05,0.04032722712398104,-0.002972987653742733,9.812626597184664,2.5e-05,0.0,0.0,0.0,2.5e-05,0.0,0.0,0.0,2.5e-05
402.74,20127,402,740000000,base,-3.926662055342074e-05,-0.0021283588043781933,-0.041572770041790275,0.9991332110074135,2.6030820491461885e-07,0.0,0.0,0.0,2.6030820491461885e-07,0.0,0.0,0.0,0.0,0.0009611808034155507,0.00031205941474276005,0.004778300343389712,2.5e-05,0.0,0.0,0.0,2.5e-05,0.0,0.0,0.0,2.5e-05,0.04728435389547993,0.004688053357479989,9.80010895423566,2.5e-05,0.0,0.0,0.0,2.5e-05,0.0,0.0,0.0,2.5e-05
402.76,20128,402,760000000,base,-3.915455616528987e-05,-0.002128318629100509,-0.041572762880050275,0.9991332113953838,2.6030820491461885e-07,0.0,0.0,0.0,2.6030820491461885e-07,0.0,0.0,0.0,0.0,0.0013423501937099686,0.009218175769132007,0.0010701818558751972,2.5e-05,0.0,0.0,0.0,2.5e-05,0.0,0.0,0.0,2.5e-05,0.041510109118335296,-0.006474644357273947,9.798418497184942,2.5e-05,0.0,0.0,0.0,2.5e-05,0.0,0.0,0.0,2.5e-05
402.78,20129,402,780000000,base,-3.926764178815029e-05,-0.002128475375106695,-0.04157275523945942,0.9991332113749547,2.6030820491461885e-07,0.0,0.0,0.0,2.6030820491461885e-07,0.0,0.0,0.0,0.0,0.012294421412408645,0.0023579631850425857,-0.005784308523090748,2.5e-05,0.0,0.0,0.0,2.5e-05,0.0,0.0,0.0,2.5e-05,0.048937754920532144,-0.008309464909001862,9.804510729335256,2.5e-05,0.0,0.0,0.0,2.5e-05,0.0,0.0,0.0,2.5e-05
402.801,20130,402,800000000,base,-3.922316472587242e-05,-0.0021285211538355363,-0.041572747937601975,0.9991332115829988,2.6030820491461885e-07,0.0,0.0,0.0,2.6030820491461885e-07,0.0,0.0,0.0,0.0,-0.012676080995588295,0.00025086687830402807,-0.00625573354616483,2.5e-05,0.0,0.0,0.0,2.5e-05,0.0,0.0,0.0,2.5e-05,0.04285292935461928,0.003923527435336673,9.801542306593197,2.5e-05,0.0,0.0,0.0,2.5e-05,0.0,0.0,0.0,2.5e-05
402.82,20131,402,820000000,base,-3.9285356624911054e-05,-0.0021286064970382217,-0.04157274040447711,0.9991332117121837,2.6030820491461885e-07,0.0,0.0,0.0,2.6030820491461885e-07,0.0,0.0,0.0,0.0,0.003019152371123718,0.003257541377286242,0.008605330148731409,2.5e-05,0.0,0.0,0.0,2.5e-05,0.0,0.0,0.0,2.5e-05,0.03689201365771206,-0.006669048797127484,9.800081023641217,2.5e-05,0.0,0.0,0.0,2.5e-05,0.0,0.0,0.0,2.5e-05
402.842,20132,402,840000000,base,-3.906094582764895e-05,-0.0021286825673763705,-0.041572733504054986,0.9991332118460334,2.6030820491461885e-07,0.0,0.0,0.0,2.6030820491461885e-07,0.0,0.0,0.0,0.0,0.004127379304654264,0.012299998691002074,0.0018937781873105356,2.5e-05,0.0,0.0,0.0,2.5e-05,0.0,0.0,0.0,2.5e-05,0.03734787906524038,0.015186635298194187,9.809785092415389,2.5e-05,0.0,0.0,0.0,2.5e-05,0.0,0.0,0.0,2.5e-05
402.86,20133,402,860000000,base,-3.91214752918627e-05,-0.002128703580263125,-0.041572725970327046,0.9991332121123655,2.6030820491461885e-07,0.0,0.0,0.0,2.6030820491461885e-07,0.0,0.0,0.0,0.0,0.009987448554911703,0.005856951027488841,-0.00978910010663281,2.5e-05,0.0,0.0,0.0,2.5e-05,0.0,0.0,0.0,2.5e-05,0.04200454806051718,0.0072182909308043585,9.806944785967959,2.5e-05,0.0,0.0,0.0,2.5e-05,0.0,0.0,0.0,2.5e-05
402.88,20134,402,880000000,base,-3.91652408482997e-05,-0.0021286967200194375,-0.04157271847185761,0.9991332124372695,2.6030820491461885e-07,0.0,0.0,0.0,2.6030820491461885e-07,0.0,0.0,0.0,0.0,0.006497520706230126,0.011325697433790988,0.0013457541151886208,2.5e-05,0.0,0.0,0.0,2.5e-05,0.0,0.0,0.0,2.5e-05,0.038298229681024816,-0.004875883844563961,9.799632040769723,2.5e-05,0.0,0.0,0.0,2.5e-05,0.0,0.0,0.0,2.5e-05
402.9,20135,402,900000000,base,-3.917581447914026e-05,-0.0021286952781962394,-0.04157271104788366,0.9991332127488292,2.6030820491461885e-07,0.0,0.0,0.0,2.6030820491461885e-07,0.0,0.0,0.0,0.0,0.0055677738861622935,0.004713325101644103,0.0007488329761223461,2.5e-05,0.0,0.0,0.0,2.5e-05,0.0,0.0,0.0,2.5e-05,0.037950417016614696,-0.010712363026187083,9.810693602315624,2.5e-05,0.0,0.0,0.0,2.5e-05,0.0,0.0,0.0,2.5e-05
402.92,20136,402,920000000,base,-3.935145906435794e-05,-0.00212868863520791,-0.041572703259706086,0.9991332130801364,2.6030820491461885e-07,0.0,0.0,0.0,2.6030820491461885e-07,0.0,0.0,0.0,0.0,0.011865994863770516,0.008092271886324161,-0.004726865406837996,2.5e-05,0.0,0.0,0.0,2.5e-05,0.0,0.0,0.0,2.5e-05,0.03615200007702034,0.0025708873961920627,9.804664335848656,2.5e-05,0.0,0.0,0.0,2.5e-05,0.0,0.0,0.0,2.5e-05
402.94,20137,402,940000000,base,-3.92226732968838e-05,-0.002128669030970312,-0.04157269614326646,0.9991332134230743,2.6030820491461885e-07,0.0,0.0,0.0,2.6030820491461885e-07,0.0,0.0,0.0,0.0,0.011773144072787364,0.006799439147401529,-0.0012699450556497573,2.5e-05,0.0,0.0,0.0,2.5e-05,0.0,0.0,0.0,2.5e-05,0.047225903550798545,0.0006356420173507463,9.811773208498133,2.5e-05,0.0,0.0,0.0,2.5e-05,0.0,0.0,0.0,2.5e-05
402.96,20138,402,960000000,base,-3.9116297621587195e-05,-0.0021287813696312676,-0.04157268898982512,0.9991332134855447,2.6030820491461885e-07,0.0,0.0,0.0,2.6030820491461885e-07,0.0,0.0,0.0,0.0,0.010909780843173924,0.006502717439625959,-0.005825052593283363,2.5e-05,0.0,0.0,0.0,2.5e-05,0.0,0.0,0.0,2.5e-05,0.03560795935753647,0.005835047495948091,9.799071967660504,2.5e-05,0.0,0.0,0.0,2.5e-05,0.0,0.0,0.0,2.5e-05
402.98,20139,402,980000000,base,-3.896778421374156e-05,-0.0021287065969270986,-0.0415726819134821,0.9991332139450957,2.6030820491461885e-07,0.0,0.0,0.0,2.6030820491461885e-07,0.0,0.0,0.0,0.0,0.003448025408189917,0.006277334048214606,-0.006807552925504402,2.5e-05,0.0,0.0,0.0,2.5e-05,0.0,0.0,0.0,2.5e-05,0.045765782337217335,0.0075303486705532805,9.806077926567697,2.5e-05,0.0,0.0,0.0,2.5e-05,0.0,0.0,0.0,2.5e-05
403.0,20140,403,0,base,-3.89592784542937e-05,-0.002128639191814412,-0.04157267452939355,0.9991332143962781,2.6030820491461885e-07,0.0,0.0,0.0,2.6030820491461885e-07,0.0,0.0,0.0,0.0,0.007947874654416261,0.015477487850615115,-0.0015756576036746169,2.5e-05,0.0,0.0,0.0,2.5e-05,0.0,0.0,0.0,2.5e-05,0.04255564581781276,-0.004271770440496177,9.802925938068908,2.5e-05,0.0,0.0,0.0,2.5e-05,0.0,0.0,0.0,2.5e-05
403.02,20141,403,20000000,base,-3.901814307035109e-05,-0.0021287110619676642,-0.04157266700968815,0.9991332145537454,2.6030820491461885e-07,0.0,0.0,0.0,2.6030820491461885e-07,0.0,0.0,0.0,0.0,-0.0005464790756224664,0.009729168337733447,-0.0115059914141374,2.5e-05,0.0,0.0,0.0,2.5e-05,0.0,0.0,0.0,2.5e-05,0.03410939561556188,-0.0033506448408529917,9.80720318908138,2.5e-05,0.0,0.0,0.0,2.5e-05,0.0,0.0,0.0,2.5e-05
403.04,20142,403,40000000,base,-3.890021838242393e-05,-0.002128496668814477,-0.041572659855548436,0.9991332153127724,2.6030820491461885e-07,0.0,0.0,0.0,2.6030820491461885e-07,0.0,0.0,0.0,0.0,-0.0038880266276197983,0.007166663013305945,-0.008209842825647531,2.5e-05,0.0,0.0,0.0,2.5e-05,0.0,0.0,0.0,2.5e-05,0.04140472971579724,-0.005385881312843519,9.804154798942307,2.5e-05,0.0,0.0,0.0,2.5e-05,0.0,0.0,0.0,2.5e-05
403.06,20143,403,60000000,base,-3.902155296510416e-05,-0.002128740577972575,-0.041572652214692765,0.9991332151063274,2.6030820491461885e-07,0.0,0.0,0.0,2.6030820491461885e-07,0.0,0.0,0.0,0.0,0.00428409388997315,0.0025049165166558572,-0.0061361746530409,2.5e-05,0.0,0.0,0.0,2.5e-05,0.0,0.0,0.0,2.5e-05,0.04181845990588604,0.001222694654345889,9.81104725113793,2.5e-05,0.0,0.0,0.0,2.5e-05,0.0,0.0,0.0,2.5e-05
403.08,20144,403,80000000,base,-3.9137094901570626e-05,-0.002128627535533323,-0.041572644555554504,0.9991332156613353,2.6030820491461885e-07,0.0,0.0,0.0,2.6030820491461885e-07,0.0,0.0,0.0,0.0,0.003419033248051791,0.006160314023553516,-0.006055796934679567,2.5e-05,0.0,0.0,0.0,2.5e-05,0.0,0.0,0.0,2.5e-05,0.04101232354107416,0.0015107219567211932,9.803873269903272,2.5e-05,0.0,0.0,0.0,2.5e-05,0.0,0.0,0.0,2.5e-05
403.1,20145,403,100000000,base,-3.913136598808742e-05,-0.0021284387689577285,-0.041572637158153944,0.9991332163715003,2.6030820491461885e-07,0.0,0.0,0.0,2.6030820491461885e-07,0.0,0.0,0.0,0.0,-0.00884755872214167,-3.760915142154031e-05,-0.007387845768338166,2.5e-05,0.0,0.0,0.0,2.5e-05,0.0,0.0,0.0,2.5e-05,0.043034645213838,-0.0035284634701053443,9.803688975141402,2.5e-05,0.0,0.0,0.0,2.5e-05,0.0,0.0,0.0,2.5e-05
403.12,20146,403,120000000,base,-3.89387278967735e-05,-0.002128366551067505,-0.04157263018454696,0.9991332168230314,2.6030820491461885e-07,0.0,0.0,0.0,2.6030820491461885e-07,0.0,0.0,0.0,0.0,0.006324717148742035,0.005782725633388523,0.0005620940259768459,2.5e-05,0.0,0.0,0.0,2.5e-05,0.0,0.0,0.0,2.5e-05,0.04188625951477,0.005680847250384466,9.809659561381297,2.5e-05,0.0,0.0,0.0,2.5e-05,0.0,0.0,0.0,2.5e-05
403.14,20147,403,140000000,base,-3.897912371706956e-05,-0.002128337714367556,-0.04157262270100591,0.9991332171942646,2.6030820491461885e-07,0.0,0.0,0.0,2.6030820491461885e-07,0.0,0.0,0.0,0.0,0.0013838246786923756,0.0037142751954118798,-0.007767519633985263,2.5e-05,0.0,0.0,0.0,2.5e-05,0.0,0.0,0.0,2.5e-05,0.04367749530421691,0.0025821486018031015,9.816799078677269,2.5e-05,0.0,0.0,0.0,2.5e-05,0.0,0.0,0.0,2.5e-05
403.16,20148,403,160000000,base,-3.864056713049399e-05,-0.0021283369457506403,-0.041572616057394374,0.9991332174854846,2.6030820491461885e-07,0.0,0.0,0.0,2.6030820491461885e-07,0.0,0.0,0.0,0.0,0.001150628496620022,0.006042781765949504,0.001832630094065262,2.5e-05,0.0,0.0,0.0,2.5e-05,0.0,0.0,0.0,2.5e-05,0.04136996997416628,0.00706128575805883,9.807449700951945,2.5e-05,0.0,0.0,0.0,2.5e-05,0.0,0.0,0.0,2.5e-05
403.18,20149,403,180000000,base,-3.85111017607073e-05,-0.002128347258321249,-0.04157260895383571,0.9991332177640849,2.6030820491461885e-07,0.0,0.0,0.0,2.6030820491461885e-07,0.0,0.0,0.0,0.0,-0.00039982449063279005,0.016150796677254484,0.0013901960221096965,2.5e-05,0.0,0.0,0.0,2.5e-05,0.0,0.0,0.0,2.5e-05,0.040724950346104016,-0.004579709041332818,9.799650963007569,2.5e-05,0.0,0.0,0.0,2.5e-05,0.0,0.0,0.0,2.5e-05
403.2,20150,403,200000000,base,-3.84126696711423e-05,-0.002128348876219546,-0.04157260178170875,0.9991332180628504,2.6030820491461885e-07,0.0,0.0,0.0,2.6030820491461885e-07,0.0,0.0,0.0,0.0,0.007561660643234541,0.00570865363113186,-0.00799482863007876,2.5e-05,0.0,0.0,0.0,2.5e-05,0.0,0.0,0.0,2.5e-05,0.04209550390085205,-0.01155400138051016,9.806579357876622,2.5e-05,0.0,0.0,0.0,2.5e-05,0.0,0.0,0.0,2.5e-05
403.22,20151,403,220000000,base,-3.845532667110637e-05,-0.00212831308216016,-0.04157259429546008,0.9991332184489499,2.6030820491461885e-07,0.0,0.0,0.0,2.6030820491461885e-07,0.0,0.0,0.0,0.0,-0.007949026375608643,0.00306497709592173,-0.006450011044980529,2.5e-05,0.0,0.0,0.0,2.5e-05,0.0,0.0,0.0,2.5e-05,0.03041124764256474,-0.0065152695390734774,9.818201468462982,2.5e-05,0.0,0.0,0.0,2.5e-05,0.0,0.0,0.0,2.5e-05
403.24,20152,403,240000000,base,-3.8583340035905506e-05,-0.002128266062475613,-0.04157258662047582,0.9991332188635188,2.6030820491461885e-07,0.0,0.0,0.0,2.6030820491461885e-07,0.0,0.0,0.0,0.0,-0.007084067546873725,0.010947391172619173,-0.006016363129264984,2.5e-05,0.0,0.0,0.0,2.5e-05,0.0,0.0,0.0,2.5e-05,0.035005923779770555,0.013096769868704887,9.810110629386077,2.5e-05,0.0,0.0,0.0,2.5e-05,0.0,0.0,0.0,2.5e-05
403.26,20153,403,260000000,base,-3.851665311313843e-05,-0.002128292637320041,-0.04157257938265962,0.9991332191106398,2.6030820491461885e-07,0.0,0.0,0.0,2.6030820491461885e-07,0.0,0.0,0.0,0.0,0.00045302772797595724,0.01509968448968923,0.0057434312009316275,2.5e-05,0.0,0.0,0.0,2.5e-05,0.0,0.0,0.0,2.5e-05,0.04499533575570211,0.00012165074506674165,9.807562655027347,2.5e-05,0.0,0.0,0.0,2.5e-05,0.0,0.0,0.0,2.5e-05
403.28,20154,403,280000000,base,-3.8596630317736103e-05,-0.0021283314905953597,-0.04157257182283957,0.9991332193393436,2.6030820491461885e-07,0.0,0.0,0.0,2.6030820491461885e-07,0.0,0.0,0.0,0.0,-0.004957483035853395,0.006848595737692116,-0.0036850644166416804,2.5e-05,0.0,0.0,0.0,2.5e-05,0.0,0.0,0.0,2.5e-05,0.0392049645423816,0.004128485328752056,9.800848390349461,2.5e-05,0.0,0.0,0.0,2.5e-05,0.0,0.0,0.0,2.5e-05
403.3,20155,403,300000000,base,-3.840140462367914e-05,-0.0021282173963278702,-0.041572564857742,0.999133219879709,2.6030820491461885e-07,0.0,0.0,0.0,2.6030820491461885e-07,0.0,0.0,0.0,0.0,0.0027022674521604553,0.004718035341508912,-0.0005936183566340792,2.5e-05,0.0,0.0,0.0,2.5e-05,0.0,0.0,0.0,2.5e-05,0.046266281869935325,0.0043914361800710035,9.802683583142382,2.5e-05,0.0,0.0,0.0,2.5e-05,0.0,0.0,0.0,2.5e-05
403.32,20156,403,320000000,base,-3.853678224308292e-05,-0.0021283267139698423,-0.04157255718333358,0.9991332199609587,2.6030820491461885e-07,0.0,0.0,0.0,2.6030820491461885e-07,0.0,0.0,0.0,0.0,0.005762994855152705,0.0003235790394267864,-0.00807396339060096,2.5e-05,0.0,0.0,0.0,2.5e-05,0.0,0.0,0.0,2.5e-05,0.04524320907405789,-0.002664762925976288,9.804013953909747,2.5e-05,0.0,0.0,0.0,2.5e-05,0.0,0.0,0.0,2.5e-05
403.34,20157,403,340000000,base,-3.862006259292064e-05,-0.002128294219367307,-0.04157254961203784,0.9991332203419927,2.6030820491461885e-07,0.0,0.0,0.0,2.6030820491461885e-07,0.0,0.0,0.0,0.0,-0.006825675123693695,0.0018435841162242088,-1.2716964601117587e-05,2.5e-05,0.0,0.0,0.0,2.5e-05,0.0,0.0,0.0,2.5e-05,0.035299942175299456,0.00494502565379292,9.807985372424248,2.5e-05,0.0,0.0,0.0,2.5e-05,0.0,0.0,0.0,2.5e-05
403.36,20158,403,360000000,base,-3.862339032731125e-05,-0.0021282881052785536,-0.04157254222034831,0.9991332206624457,2.6030820491461885e-07,0.0,0.0,0.0,2.6030820491461885e-07,0.0,0.0,0.0,0.0,0.0028582384909167933,0.005925526600981201,-0.0014836254138874798,2.5e-05,0.0,0.0,0.0,2.5e-05,0.0,0.0,0.0,2.5e-05,0.028479709011502617,0.0032276852617107695,9.813753441215983,2.5e-05,0.0,0.0,0.0,2.5e-05,0.0,0.0,0.0,2.5e-05
403.38,20159,403,380000000,base,-3.87272229244973e-05,-0.0021283655378791285,-0.04157253461492208,0.9991332208099328,2.6030820491461885e-07,0.0,0.0,0.0,2.6030820491461885e-07,0.0,0.0,0.0,0.0,0.0028793923197158004,0.0112396247425591,-0.009474226301335239,2.5e-05,0.0,0.0,0.0,2.5e-05,0.0,0.0,0.0,2.5e-05,0.03651515171311791,0.0038092335624142657,9.79713499481756,2.5e-05,0.0,0.0,0.0,2.5e-05,0.0,0.0,0.0,2.5e-05
403.4,20160,403,400000000,base,-3.877699994542671e-05,-0.002128540172349213,-0.04157252713823542,0.999133220747073,2.6030820491461885e-07,0.0,0.0,0.0,2.6030820491461885e-07,0.0,0.0,0.0,0.0,0.00042635203247875104,0.004944311216333047,0.002610709019475152,2.5e-05,0.0,0.0,0.0,2.5e-05,0.0,0.0,0.0,2.5e-05,0.0479586186697475,-0.00636929363252501,9.805967461745132,2.5e-05,0.0,0.0,0.0,2.5e-05,0.0,0.0,0.0,2.5e-05
403.42,20161,403,420000000,base,-3.883239739663309e-05,-0.0021285862155677768,-0.0415725196384032,0.999133220958888,2.6030820491461885e-07,0.0,0.0,0.0,2.6030820491461885e-07,0.0,0.0,0.0,0.0,0.011323630758780474,0.002530643260780595,-0.010756566131590189,2.5e-05,0.0,0.0,0.0,2.5e-05,0.0,0.0,0.0,2.5e-05,0.04833068526522529,-0.001854256993594251,9.804888545960452,2.5e-05,0.0,0.0,0.0,2.5e-05,0.0,0.0,0.0,2.5e-05
403.44,20162,403,440000000,base,-3.878057537174207e-05,-0.0021287589891726584,-0.04157251238732532,0.9991332208945105,2.6030820491461885e-07,0.0,0.0,0.0,2.6030820491461885e-07,0.0,0.0,0.0,0.0,0.00035713528177033684,0.008203682860281591,-0.0014118834558485502,2.5e-05,0.0,0.0,0.0,2.5e-05,0.0,0.0,0.0,2.5e-05,0.04484568387354028,-0.007217221601744756,9.815339371157137,2.5e-05,0.0,0.0,0.0,2.5e-05,0.0,0.0,0.0,2.5e-05
403.46,20163,403,460000000,base,-3.8882671368127987e-05,-0.0021286947919605947,-0.04157250477601028,0.9991332213440153,2.6030820491461885e-07,0.0,0.0,0.0,2.6030820491461885e-07,0.0,0.0,0.0,0.0,-0.006761180511081208,0.005694426005944341,0.003903804312610397,2.5e-05,0.0,0.0,0.0,2.5e-05,0.0,0.0,0.0,2.5e-05,0.04663209473652806,-0.0009165343418828316,9.806381714131089,2.5e-05,0.0,0.0,0.0,2.5e-05,0.0,0.0,0.0,2.5e-05
403.48,20164,403,480000000,base,-3.877072773759616e-05,-0.0021287349016573813,-0.04157249764730438,0.9991332215595244,2.6030820491461885e-07,0.0,0.0,0.0,2.6030820491461885e-07,0.0,0.0,0.0,0.0,0.00877260992943012,0.0029385441134854155,0.0059261524382038765,2.5e-05,0.0,0.0,0.0,2.5e-05,0.0,0.0,0.0,2.5e-05,0.041369916977508546,0.0030727003553795706,9.810649449338355,2.5e-05,0.0,0.0,0.0,2.5e-05,0.0,0.0,0.0,2.5e-05
403.5,20165,403,500000000,base,-3.8891490889346645e-05,-0.0021285796832228314,-0.04157248998810905,0.9991332222042127,2.6030820491461885e-07,0.0,0.0,0.0,2.6030820491461885e-07,0.0,0.0,0.0,0.0,0.006404649373396158,0.003941880157320636,-0.00025239781391957054,2.5e-05,0.0,0.0,0.0,2.5e-05,0.0,0.0,0.0,2.5e-05,0.04193067691569048,0.0019883790743917603,9.817024956111203,2.5e-05,0.0,0.0,0.0,2.5e-05,0.0,0.0,0.0,2.5e-05
403.52,20166,403,520000000,base,-3.881023604868872e-05,-0.0021285223546441026,-0.04157248278440787,0.9991332226292405,2.6030820491461885e-07,0.0,0.0,0.0,2.6030820491461885e-07,0.0,0.0,0.0,0.0,0.0034729465273024888,0.015021678284417611,0.00047486696435987245,2.5e-05,0.0,0.0,0.0,2.5e-05,0.0,0.0,0.0,2.5e-05,0.04915391101903366,-0.0017005849080948857,9.80530447736878,2.5e-05,0.0,0.0,0.0,2.5e-05,0.0,0.0,0.0,2.5e-05
403.54,20167,403,540000000,base,-3.8896154163668554e-05,-0.0021284396553070965,-0.041572475210059676,0.9991332231172337,2.6030820491461885e-07,0.0,0.0,0.0,2.6030820491461885e-07,0.0,0.0,0.0,0.0,0.007590731774338365,0.0014717126392680899,0.0033153286833982557,2.5e-05,0.0,0.0,0.0,2.5e-05,0.0,0.0,0.0,2.5e-05,0.03413159748201201,-0.005698634865753092,9.807511174911529,2.5e-05,0.0,0.0,0.0,2.5e-05,0.0,0.0,0.0,2.5e-05
403.56,20168,403,560000000,base,-3.8908767665770145e-05,-0.0021283918220985393,-0.04157246780139664,0.9991332235269035,2.6030820491461885e-07,0.0,0.0,0.0,2.6030820491461885e-07,0.0,0.0,0.0,0.0,0.00807545263439776,0.006969558292591272,-0.0021425170702548887,2.5e-05,0.0,0.0,0.0,2.5e-05,0.0,0.0,0.0,2.5e-05,0.038825503761819105,-0.0043925011932474094,9.803188783236624,2.5e-05,0.0,0.0,0.0,2.5e-05,0.0,0.0,0.0,2.5e-05
403.58,20169,403,580000000,base,-3.9009189006793024e-05,-0.0021283406161098683,-0.041572460199281104,0.9991332239483804,2.6030820491461885e-07,0.0,0.0,0.0,2.6030820491461885e-07,0.0,0.0,0.0,0.0,0.0035389185719947045,0.01405391898812585,-0.000525467790040101,2.5e-05,0.0,0.0,0.0,2.5e-05,0.0,0.0,0.0,2.5e-05,0.04195466980006958,0.007480043845284949,9.805357813805232,2.5e-05,0.0,0.0,0.0,2.5e-05,0.0,0.0,0.0,2.5e-05
403.6,20170,403,600000000,base,-3.923183885468079e-05,-0.002128251088529461,-0.0415724523245957,0.9991332244580232,2.6030820491461885e-07,0.0,0.0,0.0,2.6030820491461885e-07,0.0,0.0,0.0,0.0,0.0008420675081272414,0.006786506800054218,-0.0010975938568447618,2.5e-05,0.0,0.0,0.0,2.5e-05,0.0,0.0,0.0,2.5e-05,0.03873036256655519,-0.0006132408394842405,9.810750951954969,2.5e-05,0.0,0.0,0.0,2.5e-05,0.0,0.0,0.0,2.5e-05
403.62,20171,403,620000000,base,-3.928203074208907e-05,-0.0021280774517003476,-0.04157244482391454,0.9991332251379914,2.6030820491461885e-07,0.0,0.0,0.0,2.6030820491461885e-07,0.0,0.0,0.0,0.0,0.005297605696771773,-0.003706103726307036,-0.007982430448118085,2.5e-05,0.0,0.0,0.0,2.5e-05,0.0,0.0,0.0,2.5e-05,0.04238349548357505,0.007259620549468487,9.812157475654361,2.5e-05,0.0,0.0,0.0,2.5e-05,0.0,0.0,0.0,2.5e-05
403.64,20172,403,640000000,base,-3.9291288526870134e-05,-0.002128371702108163,-0.041572437456057,0.9991332248174187,2.6030820491461885e-07,0.0,0.0,0.0,2.6030820491461885e-07,0.0,0.0,0.0,0.0,-0.003163993523464569,0.009339828749184917,0.005521765394643124,2.5e-05,0.0,0.0,0.0,2.5e-05,0.0,0.0,0.0,2.5e-05,0.043879816157592795,0.002356065419286424,9.798658031580425,2.5e-05,0.0,0.0,0.0,2.5e-05,0.0,0.0,0.0,2.5e-05
403.66,20173,403,660000000,base,-3.945911921452168e-05,-0.0021283011865889916,-0.04157242970627485,0.9991332252834723,2.6030820491461885e-07,0.0,0.0,0.0,2.6030820491461885e-07,0.0,0.0,0.0,0.0,0.0038718744123503153,0.008557784651870346,-0.004441355975119818,2.5e-05,0.0,0.0,0.0,2.5e-05,0.0,0.0,0.0,2.5e-05,0.04492091829475739,-0.0002571003932850891,9.803056946825572,2.5e-05,0.0,0.0,0.0,2.5e-05,0.0,0.0,0.0,2.5e-05
403.68,20174,403,680000000,base,-3.94875986723702e-05,-0.0021283970797064174,-0.04157242227973801,0.999133225387083,2.6030820491461885e-07,0.0,0.0,0.0,2.6030820491461885e-07,0.0,0.0,0.0,0.0,0.0034740650209932906,0.015979887977399018,-0.004559622180770519,2.5e-05,0.0,0.0,0.0,2.5e-05,0.0,0.0,0.0,2.5e-05,0.03217234532537765,-0.0007610010942802716,9.79956856885131,2.5e-05,0.0,0.0,0.0,2.5e-05,0.0,0.0,0.0,2.5e-05
403.7,20175,403,700000000,base,-3.9503783029951254e-05,-0.002128324862131504,-0.041572414866083256,0.9991332258487525,2.6030820491461885e-07,0.0,0.0,0.0,2.6030820491461885e-07,0.0,0.0,0.0,0.0,-0.001467170248234617,0.010269998179291,-0.0030128657752170667,2.5e-05,0.0,0.0,0.0,2.5e-05,0.0,0.0,0.0,2.5e-05,0.04392812809202002,-0.002262564408762417,9.802334689438485,2.5e-05,0.0,0.0,0.0,2.5e-05,0.0,0.0,0.0,2.5e-05
403.72,20176,403,720000000,base,-3.930592752999189e-05,-0.0021284783950865963,-0.04157240794587718,0.9991332258174319,2.6030820491461885e-07,0.0,0.0,0.0,2.6030820491461885e-07,0.0,0.0,0.0,0.0,0.004982541632896799,0.0146932598254746,0.007635970203866616,2.5e-05,0.0,0.0,0.0,2.5e-05,0.0,0.0,0.0,2.5e-05,0.03911452485596595,-0.0016332180191687877,9.811986936168935,2.5e-05,0.0,0.0,0.0,2.5e-05,0.0,0.0,0.0,2.5e-05
403.74,20177,403,740000000,base,-3.9023973194813184e-05,-0.0021285034939625995,-0.04157240120062933,0.9991332260556745,2.6030820491461885e-07,0.0,0.0,0.0,2.6030820491461885e-07,0.0,0.0,0.0,0.0,0.00465912835728053,0.003674907964031372,-0.007632709611456469,2.5e-05,0.0,0.0,0.0,2.5e-05,0.0,0.0,0.0,2.5e-05,0.04409761061108458,0.0009066391079084661,9.8040832029829,2.5e-05,0.0,0.0,0.0,2.5e-05,0.0,0.0,0.0,2.5e-05
403.76,20178,403,760000000,base,-3.8871072601138786e-05,-0.0021286002976385328,-0.04157239417755048,0.9991332261476239,2.6030820491461885e-07,0.0,0.0,0.0,2.6030820491461885e-07,0.0,0.0,0.0,0.0,0.00109828996509225,0.007298066374802988,-0.005668117083328354,2.5e-05,0.0,0.0,0.0,2.5e-05,0.0,0.0,0.0,2.5e-05,0.038341439035732415,0.002224192061928128,9.810491990750348,2.5e-05,0.0,0.0,0.0,2.5e-05,0.0,0.0,0.0,2.5e-05
403.78,20179,403,780000000,base,-3.893649478417817e-05,-0.0021286781693865206,-0.041572386671458635,0.9991332262914888,2.6030820491461885e-07,0.0,0.0,0.0,2.6030820491461885e-07,0.0,0.0,0.0,0.0,0.0027866874615436544,0.001964819778581484,0.0012768892976780394,2.5e-05,0.0,0.0,0.0,2.5e-05,0.0,0.0,0.0,2.5e-05,0.04681217540961374,0.003208887506380641,9.81423962610494,2.5e-05,0.0,0.0,0.0,2.5e-05,0.0,0.0,0.0,2.5e-05
403.8,20180,403,800000000,base,-3.894373298074532e-05,-0.0021287092079193106,-0.04157237929038257,0.999133226532193,2.6030820491461885e-07,0.0,0.0,0.0,2.6030820491461885e-07,0.0,0.0,0.0,0.0,0.006428214342607155,0.0015430009338084569,0.0074454551095942765,2.5e-05,0.0,0.0,0.0,2.5e-05,0.0,0.0,0.0,2.5e-05,0.041478587627530025,-0.0006838905297631853,9.801355847185599,2.5e-05,0.0,0.0,0.0,2.5e-05,0.0,0.0,0.0,2.5e-05
403.82,20181,403,820000000,base,-3.886696622565712e-05,-0.0021285476922964825,-0.04157237207834061,0.9991332271793689,2.6030820491461885e-07,0.0,0.0,0.0,2.6030820491461885e-07,0.0,0.0,0.0,0.0,-0.004213969106271765,0.002594968293469259,-0.006696020172422087,2.5e-05,0.0,0.0,0.0,2.5e-05,0.0,0.0,0.0,2.5e-05,0.03870932772692227,0.0044466319909630785,9.814205211972132,2.5e-05,0.0,0.0,0.0,2.5e-05,0.0,0.0,0.0,2.5e-05
403.84,20182,403,840000000,base,-3.876484229579738e-05,-0.0021286738140265005,-0.041572364948657244,0.9991332272112945,2.6030820491461885e-07,0.0,0.0,0.0,2.6030820491461885e-07,0.0,0.0,0.0,0.0,0.010669844368793901,0.008166071511091225,0.000169280919057318,2.5e-05,0.0,0.0,0.0,2.5e-05,0.0,0.0,0.0,2.5e-05,0.036918775875281494,0.004306676389197933,9.807228600423935,2.5e-05,0.0,0.0,0.0,2.5e-05,0.0,0.0,0.0,2.5e-05
403.86,20183,403,860000000,base,-3.877673585819229e-05,-0.0021285016779969096,-0.04157235754135507,0.9991332278857634,2.6030820491461885e-07,0.0,0.0,0.0,2.6030820491461885e-07,0.0,0.0,0.0,0.0,0.0056235338949842915,0.01731195811695392,-0.0027846840543012488,2.5e-05,0.0,0.0,0.0,2.5e-05,0.0,0.0,0.0,2.5e-05,0.03913242910429957,0.003025931331040537,9.795735487850155,2.5e-05,0.0,0.0,0.0,2.5e-05,0.0,0.0,0.0,2.5e-05
403.88,20184,403,880000000,base,-3.873579506224799e-05,-0.0021284950311439665,-0.041572350266188766,0.9991332282042198,2.6030820491461885e-07,0.0,0.0,0.0,2.6030820491461885e-07,0.0,0.0,0.0,0.0,0.0013146921308602399,0.00873874523505983,0.0017594661684563505,2.5e-05,0.0,0.0,0.0,2.5e-05,0.0,0.0,0.0,2.5e-05,0.03816639940214715,-0.0006601303737526233,9.806596568734331,2.5e-05,0.0,0.0,0.0,2.5e-05,0.0,0.0,0.0,2.5e-05
403.9,20185,403,900000000,base,-3.867223092966444e-05,-0.0021284359331369554,-0.04157234303701899,0.9991332286333737,2.6030820491461885e-07,0.0,0.0,0.0,2.6030820491461885e-07,0.0,0.0,0.0,0.0,0.006192159053782225,0.0030381904108608892,-0.00458166690535372,2.5e-05,0.0,0.0,0.0,2.5e-05,0.0,0.0,0.0,2.5e-05,0.043251484332252725,-0.008013241127355023,9.805797343708809,2.5e-05,0.0,0.0,0.0,2.5e-05,0.0,0.0,0.0,2.5e-05
403.92,20186,403,920000000,base,-3.8681857877055267e-05,-0.002128300790979326,-0.0415723356401865,0.9991332292286532,2.6030820491461885e-07,0.0,0.0,0.0,2.6030820491461885e-07,0.0,0.0,0.0,0.0,0.0007707198197129863,0.0031816057417667887,-0.0018271664210065082,2.5e-05,0.0,0.0,0.0,2.5e-05,0.0,0.0,0.0,2.5e-05,0.04291393316903242,0.0016973918543496764,9.810089775727763,2.5e-05,0.0,0.0,0.0,2.5e-05,0.0,0.0,0.0,2.5e-05
403.94,20187,403,940000000,base,-3.878726633251887e-05,-0.0021283599063064156,-0.04157232804992043,0.9991332294144596,2.6030820491461885e-07,0.0,0.0,0.0,2.6030820491461885e-07,0.0,0.0,0.0,0.0,0.004716622596832294,0.009062749802343038,-0.0008153518221827777,2.5e-05,0.0,0.0,0.0,2.5e-05,0.0,0.0,0.0,2.5e-05,0.045656246581568166,-0.004518795430158428,9.80762083895703,2.5e-05,0.0,0.0,0.0,2.5e-05,0.0,0.0,0.0,2.5e-05
403.96,20188,403,960000000,base,-3.8896218266280106e-05,-0.0021283292343993398,-0.041572320444544404,0.9991332297920084,2.6030820491461885e-07,0.0,0.0,0.0,2.6030820491461885e-07,0.0,0.0,0.0,0.0,0.004485300940224917,0.003667964223762077,0.0019068666678145382,2.5e-05,0.0,0.0,0.0,2.5e-05,0.0,0.0,0.0,2.5e-05,0.04219080685163489,0.0012193414215180354,9.803496392835058,2.5e-05,0.0,0.0,0.0,2.5e-05,0.0,0.0,0.0,2.5e-05
403.98,20189,403,980000000,base,-3.873999197370914e-05,-0.0021282331458489143,-0.04157231341956043,0.9991332302950573,2.6030820491461885e-07,0.0,0.0,0.0,2.6030820491461885e-07,0.0,0.0,0.0,0.0,0.012335050860801654,-0.0026041763268683142,-0.00011429441385230662,2.5e-05,0.0,0.0,0.0,2.5e-05,0.0,0.0,0.0,2.5e-05,0.0419506217115075,0.015283339207382493,9.79954638613109,2.5e-05,0.0,0.0,0.0,2.5e-05,0.0,0.0,0.0,2.5e-05
404.0,20190,404,0,base,-3.89280309235054e-05,-0.0021280664050491384,-0.041572305628869086,0.9991332309670636,2.6030820491461885e-07,0.0,0.0,0.0,2.6030820491461885e-07,0.0,0.0,0.0,0.0,-0.0028957338182213957,0.008112320042462687,-0.003937724037770762,2.5e-05,0.0,0.0,0.0,2.5e-05,0.0,0.0,0.0,2.5e-05,0.036142461308693086,-0.0025663589180478547,9.810152005135956,2.5e-05,0.0,0.0,0.0,2.5e-05,0.0,0.0,0.0,2.5e-05
404.02,20191,404,20000000,base,-3.897265842907693e-05,-0.002127994757161063,-0.04157229816402967,0.999133231428525,2.6030820491461885e-07,0.0,0.0,0.0,2.6030820491461885e-07,0.0,0.0,0.0,0.0,-0.003171564609759984,0.017708388276478408,0.004136349070667605,2.5e-05,0.0,0.0,0.0,2.5e-05,0.0,0.0,0.0,2.5e-05,0.05075010360306489,-0.004294195110222797,9.79649282802485,2.5e-05,0.0,0.0,0.0,2.5e-05,0.0,0.0,0.0,2.5e-05
404.04,20192,404,40000000,base,-3.8843951774242746e-05,-0.002128144673216169,-0.041572291102396144,0.9991332314080514,2.6030820491461885e-07,0.0,0.0,0.0,2.6030820491461885e-07,0.0,0.0,0.0,0.0,0.006823022688994436,0.01167798421932981,-0.0009755580083650342,2.5e-05,0.0,0.0,0.0,2.5e-05,0.0,0.0,0.0,2.5e-05,0.0402820179784624,-0.0031983113819918597,9.817084789686223,2.5e-05,0.0,0.0,0.0,2.5e-05,0.0,0.0,0.0,2.5e-05
404.06,20193,404,60000000,base,-3.886641646505907e-05,-0.002127914027977359,-0.041572283673750855,0.999133232207517,2.6030820491461885e-07,0.0,0.0,0.0,2.6030820491461885e-07,0.0,0.0,0.0,0.0,0.0109472097801898,-0.004299378288667204,0.004307744302266022,2.5e-05,0.0,0.0,0.0,2.5e-05,0.0,0.0,0.0,2.5e-05,0.036956660762682704,0.0025766475464189358,9.810768777374639,2.5e-05,0.0,0.0,0.0,2.5e-05,0.0,0.0,0.0,2.5e-05
404.08,20194,404,80000000,base,-3.862907587037984e-05,-0.002127872667726407,-0.04157227683635631,0.999133232589301,2.6030820491461885e-07,0.0,0.0,0.0,2.6030820491461885e-07,0.0,0.0,0.0,0.0,-0.0014734567149152825,0.0021240153177037673,-0.0004415346001100213,2.5e-05,0.0,0.0,0.0,2.5e-05,0.0,0.0,0.0,2.5e-05,0.03757484086389767,-0.006851960111619421,9.801429021499176,2.5e-05,0.0,0.0,0.0,2.5e-05,0.0,0.0,0.0,2.5e-05
404.1,20195,404,100000000,base,-3.863032062522009e-05,-0.0021278049075822703,-0.04157226947053951,0.9991332330400398,2.6030820491461885e-07,0.0,0.0,0.0,2.6030820491461885e-07,0.0,0.0,0.0,0.0,-0.0018554543719534048,-0.004689545515305046,-0.004985534839999244,2.5e-05,0.0,0.0,0.0,2.5e-05,0.0,0.0,0.0,2.5e-05,0.04987887304785296,-0.003337604307792674,9.816924989257133,2.5e-05,0.0,0.0,0.0,2.5e-05,0.0,0.0,0.0,2.5e-05
404.12,20196,404,120000000,base,-3.862663320513848e-05,-0.0021278055676112527,-0.0415722621224399,0.999133233344519,2.6030820491461885e-07,0.0,0.0,0.0,2.6030820491461885e-07,0.0,0.0,0.0,0.0,0.0006995809474323485,0.014675265997047184,0.0008053431316989309,2.5e-05,0.0,0.0,0.0,2.5e-05,0.0,0.0,0.0,2.5e-05,0.05189881362006965,0.0009662502189312378,9.805909990183272,2.5e-05,0.0,0.0,0.0,2.5e-05,0.0,0.0,0.0,2.5e-05
404.14,20197,404,140000000,base,-3.866655482710503e-05,-0.0021276888291852794,-0.04157225466829855,0.9991332339017344,2.6030820491461885e-07,0.0,0.0,0.0,2.6030820491461885e-07,0.0,0.0,0.0,0.0,0.007089643757203396,0.005280366694539046,-0.0012269908984638605,2.5e-05,0.0,0.0,0.0,2.5e-05,0.0,0.0,0.0,2.5e-05,0.04536479793447247,-0.0018495385633080252,9.808243499228487,2.5e-05,0.0,0.0,0.0,2.5e-05,0.0,0.0,0.0,2.5e-05
404.16,20198,404,160000000,base,-3.88112188678846e-05,-0.0021276652443315085,-0.041572246991923356,0.999133234265751,2.6030820491461885e-07,0.0,0.0,0.0,2.6030820491461885e-07,0.0,0.0,0.0,0.0,-0.004675773365182174,0.00746337498494143,-0.0009638943861200667,2.5e-05,0.0,0.0,0.0,2.5e-05,0.0,0.0,0.0,2.5e-05,0.0280932465641198,0.004294251621434908,9.806079736475283,2.5e-05,0.0,0.0,0.0,2.5e-05,0.0,0.0,0.0,2.5e-05
404.18,20199,404,180000000,base,-3.8978999484267064e-05,-0.002127353956754944,-0.04157223923954941,0.9991332352446245,2.6030820491461885e-07,0.0,0.0,0.0,2.6030820491461885e-07,0.0,0.0,0.0,0.0,0.002756533264024941,0.004624524427112186,-0.0009164641598238129,2.5e-05,0.0,0.0,0.0,2.5e-05,0.0,0.0,0.0,2.5e-05,0.04732214875842489,-0.004409218829104835,9.798698421184431,2.5e-05,0.0,0.0,0.0,2.5e-05,0.0,0.0,0.0,2.5e-05
404.2,20200,404,200000000,base,-3.8939241964521486e-05,-0.002127474856093415,-0.04157223198471041,0.9991332352906102,2.6030820491461885e-07,0.0,0.0,0.0,2.6030820491461885e-07,0.0,0.0,0.0,0.0,-0.007486107139340246,0.012029102035186362,0.0022673959984767064,2.5e-05,0.0,0.0,0.0,2.5e-05,0.0,0.0,0.0,2.5e-05,0.03936239354533013,0.0012024074446103815,9.80224703843637,2.5e-05,0.0,0.0,0.0,2.5e-05,0.0,0.0,0.0,2.5e-05
404.22,20201,404,220000000,base,-3.889130355889806e-05,-0.0021276214814967944,-0.041572224750952215,0.9991332352812384,2.6030820491461885e-07,0.0,0.0,0.0,2.6030820491461885e-07,0.0,0.0,0.0,0.0,0.00015562494490668194,-0.0010046077159517146,0.0025194522505185986,2.5e-05,0.0,0.0,0.0,2.5e-05,0.0,0.0,0.0,2.5e-05,0.050415363456502375,-0.0028236446053555323,9.809812459075829,2.5e-05,0.0,0.0,0.0,2.5e-05,0.0,0.0,0.0,2.5e-05
404.24,20202,404,240000000,base,-3.892176857318097e-05,-0.0021277168828529396,-0.04157221734023053,0.9991332353852407,2.6030820491461885e-07,0.0,0.0,0.0,2.6030820491461885e-07,0.0,0.0,0.0,0.0,0.010013066436689123,0.005654588500501021,-0.001418581729088567,2.5e-05,0.0,0.0,0.0,2.5e-05,0.0,0.0,0.0,2.5e-05,0.051683029278147316,6.894347648539684e-05,9.796056225458745,2.5e-05,0.0,0.0,0.0,2.5e-05,0.0,0.0,0.0,2.5e-05
404.26,20203,404,260000000,base,-3.902485964601027e-05,-0.0021276136652357844,-0.041572209752145955,0.9991332359167496,2.6030820491461885e-07,0.0,0.0,0.0,2.6030820491461885e-07,0.0,0.0,0.0,0.0,0.008292418077124995,0.0059278663753634065,0.0041520504856735994,2.5e-05,0.0,0.0,0.0,2.5e-05,0.0,0.0,0.0,2.5e-05,0.04630444469578003,-0.005322716193960642,9.816358018021463,2.5e-05,0.0,0.0,0.0,2.5e-05,0.0,0.0,0.0,2.5e-05
404.28,20204,404,280000000,base,-3.9069729895425196e-05,-0.002127512958093098,-0.041572202293556466,0.9991332364397818,2.6030820491461885e-07,0.0,0.0,0.0,2.6030820491461885e-07,0.0,0.0,0.0,0.0,0.0054492208469536715,0.007836145140880301,0.002630839547183704,2.5e-05,0.0,0.0,0.0,2.5e-05,0.0,0.0,0.0,2.5e-05,0.043671078236420566,-0.0034745609523362444,9.81089170591411,2.5e-05,0.0,0.0,0.0,2.5e-05,0.0,0.0,0.0,2.5e-05
404.3,20205,404,300000000,base,-3.90049764304692e-05,-0.002127514135834373,-0.041572195086830126,0.9991332367396634,2.6030820491461885e-07,0.0,0.0,0.0,2.6030820491461885e-07,0.0,0.0,0.0,0.0,-0.0004064678263574102,-0.0003055142649496089,0.002499345610028494,2.5e-05,0.0,0.0,0.0,2.5e-05,0.0,0.0,0.0,2.5e-05,0.03820305812035821,-0.001165061484418879,9.806857656644791,2.5e-05,0.0,0.0,0.0,2.5e-05,0.0,0.0,0.0,2.5e-05
404.32,20206,404,320000000,base,-3.897725932789504e-05,-0.002127658462457598,-0.04157218781182717,0.9991332367361113,2.6030820491461885e-07,0.0,0.0,0.0,2.6030820491461885e-07,0.0,0.0,0.0,0.0,0.003817515617546512,0.004138515569462953,-0.004174066445799649,2.5e-05,0.0,0.0,0.0,2.5e-05,0.0,0.0,0.0,2.5e-05,0.05415359275243048,0.003589834860038913,9.814166744706894,2.5e-05,0.0,0.0,0.0,2.5e-05,0.0,0.0,0.0,2.5e-05
404.34,20207,404,340000000,base,-3.9132080186190184e-05,-0.0021275993124319444,-0.041572180116340396,0.999133237176214,2.6030820491461885e-07,0.0,0.0,0.0,2.6030820491461885e-07,0.0,0.0,0.0,0.0,0.004537735426904211,0.007936726454517222,-0.002518656939829774,2.5e-05,0.0,0.0,0.0,2.5e-05,0.0,0.0,0.0,2.5e-05,0.04855009381829881,0.0026005175689901186,9.807046060798893,2.5e-05,0.0,0.0,0.0,2.5e-05,0.0,0.0,0.0,2.5e-05
404.36,20208,404,360000000,base,-3.9039171391518e-05,-0.0021276309872655078,-0.04157217297666671,0.9991332374094675,2.6030820491461885e-07,0.0,0.0,0.0,2.6030820491461885e-07,0.0,0.0,0.0,0.0,0.0010205529891893644,-0.002956858555824778,0.0014338017431473507,2.5e-05,0.0,0.0,0.0,2.5e-05,0.0,0.0,0.0,2.5e-05,0.03714105299319106,0.006725236989979542,9.80512663309652,2.5e-05,0.0,0.0,0.0,2.5e-05,0.0,0.0,0.0,2.5e-05
404.38,20209,404,380000000,base,-3.926108439023051e-05,-0.002127707186133523,-0.041572165146564054,0.9991332375643021,2.6030820491461885e-07,0.0,0.0,0.0,2.6030820491461885e-07,0.0,0.0,0.0,0.0,0.0002334124333556631,0.009615908126122084,-0.0021305034329987304,2.5e-05,0.0,0.0,0.0,2.5e-05,0.0,0.0,0.0,2.5e-05,0.04294073332894497,0.0014561536296945508,9.808423987740001,2.5e-05,0.0,0.0,0.0,2.5e-05,0.0,0.0,0.0,2.5e-05
404.4,20210,404,400000000,base,-3.928245355009164e-05,-0.0021277591096817484,-0.04157215775781518,0.9991332377603196,2.6030820491461885e-07,0.0,0.0,0.0,2.6030820491461885e-07,0.0,0.0,0.0,0.0,-0.0010950952340398378,0.0028914377453051997,0.00140850715406073,2.5e-05,0.0,0.0,0.0,2.5e-05,0.0,0.0,0.0,2.5e-05,0.049257180140625675,-0.00038256710246041526,9.800236413400777,2.5e-05,0.0,0.0,0.0,2.5e-05,0.0,0.0,0.0,2.5e-05
404.42,20211,404,420000000,base,-3.928401993496453e-05,-0.0021278488081532183,-0.04157215041688382,0.9991332378746747,2.6030820491461885e-07,0.0,0.0,0.0,2.6030820491461885e-07,0.0,0.0,0.0,0.0,0.0005327511932895612,0.007683658126238243,0.0004707430928067879,2.5e-05,0.0,0.0,0.0,2.5e-05,0.0,0.0,0.0,2.5e-05,0.03813215576878328,-0.0016025006628077767,9.81283254480173,2.5e-05,0.0,0.0,0.0,2.5e-05,0.0,0.0,0.0,2.5e-05
404.44,20212,404,440000000,base,-3.919589469820052e-05,-0.0021278859247909196,-0.041572143270018645,0.9991332380964562,2.6030820491461885e-07,0.0,0.0,0.0,2.6030820491461885e-07,0.0,0.0,0.0,0.0,-0.0004068227630098748,0.00204008699828445,-0.0014580523755906769,2.5e-05,0.0,0.0,0.0,2.5e-05,0.0,0.0,0.0,2.5e-05,0.048703355590802466,-0.002685915837965766,9.81082911800599,2.5e-05,0.0,0.0,0.0,2.5e-05,0.0,0.0,0.0,2.5e-05
404.46,20213,404,460000000,base,-3.92553811260304e-05,-0.002127801422458345,-0.041572135787090604,0.9991332385854358,2.6030820491461885e-07,0.0,0.0,0.0,2.6030820491461885e-07,0.0,0.0,0.0,0.0,0.000702093977254418,-0.002787189868366821,-0.0037426315253083478,2.5e-05,0.0,0.0,0.0,2.5e-05,0.0,0.0,0.0,2.5e-05,0.04970889943910485,0.0008931012857221862,9.810431673032546,2.5e-05,0.0,0.0,0.0,2.5e-05,0.0,0.0,0.0,2.5e-05
404.48,20214,404,480000000,base,-3.929541784204044e-05,-0.0021278869692122177,-0.041572128363008026,0.9991332387105766,2.6030820491461885e-07,0.0,0.0,0.0,2.6030820491461885e-07,0.0,0.0,0.0,0.0,0.0031448757425671073,0.011187988907749018,0.0022143413334215728,2.5e-05,0.0,0.0,0.0,2.5e-05,0.0,0.0,0.0,2.5e-05,0.048849531925056394,-0.0024567078460339623,9.807213404663134,2.5e-05,0.0,0.0,0.0,2.5e-05,0.0,0.0,0.0,2.5e-05
404.5,20215,404,500000000,base,-3.9254684038659687e-05,-0.0021278520792498644,-0.04157212110723623,0.9991332390883829,2.6030820491461885e-07,0.0,0.0,0.0,2.6030820491461885e-07,0.0,0.0,0.0,0.0,0.012954790787525202,0.0018140564523669203,-0.003239441661602576,2.5e-05,0.0,0.0,0.0,2.5e-05,0.0,0.0,0.0,2.5e-05,0.037744481860964144,0.005489576036953989,9.811841543384487,2.5e-05,0.0,0.0,0.0,2.5e-05,0.0,0.0,0.0,2.5e-05
404.52,20216,404,520000000,base,-3.922833498980154e-05,-0.002127756651487958,-0.041572113815018415,0.9991332395960614,2.6030820491461885e-07,0.0,0.0,0.0,2.6030820491461885e-07,0.0,0.0,0.0,0.0,0.0013232170460084282,0.013503221754859407,-0.0016054780003959682,2.5e-05,0.0,0.0,0.0,2.5e-05,0.0,0.0,0.0,2.5e-05,0.04051883674258671,0.0012721585371072435,9.814490612810214,2.5e-05,0.0,0.0,0.0,2.5e-05,0.0,0.0,0.0,2.5e-05
404.54,20217,404,540000000,base,-3.920159379250996e-05,-0.002127797788084236,-0.04157210653657883,0.9991332398123484,2.6030820491461885e-07,0.0,0.0,0.0,2.6030820491461885e-07,0.0,0.0,0.0,0.0,-0.0026741964255583505,0.00665368621842467,-0.009530187304313322,2.5e-05,0.0,0.0,0.0,2.5e-05,0.0,0.0,0.0,2.5e-05,0.040622703908370694,0.0011855335504558054,9.801071684978526,2.5e-05,0.0,0.0,0.0,2.5e-05,0.0,0.0,0.0,2.5e-05
404.56,20218,404,560000000,base,-3.9293810512540816e-05,-0.0021277837831345744,-0.04157209899127673,0.9991332401524974,2.6030820491461885e-07,0.0,0.0,0.0,2.6030820491461885e-07,0.0,0.0,0.0,0.0,0.005296357651465973,0.01022260277421976,0.005661107083591738,2.5e-05,0.0,0.0,0.0,2.5e-05,0.0,0.0,0.0,2.5e-05,0.041448558861792655,0.0002630609549115917,9.813504797623473,2.5e-05,0.0,0.0,0.0,2.5e-05,0.0,0.0,0.0,2.5e-05
404.58,20219,404,580000000,base,-3.9522723024203915e-05,-0.0021278518588768967,-0.041572091152196206,0.9991332403246599,2.6030820491461885e-07,0.0,0.0,0.0,2.6030820491461885e-07,0.0,0.0,0.0,0.0,-0.007057183519013407,0.005175240561418704,0.003975010852790159,2.5e-05,0.0,0.0,0.0,2.5e-05,0.0,0.0,0.0,2.5e-05,0.03767068315994652,0.0008490935653373466,9.814457722855336,2.5e-05,0.0,0.0,0.0,2.5e-05,0.0,0.0,0.0,2.5e-05
404.6,20220,404,600000000,base,-3.955862669910894e-05,-0.0021276952468360635,-0.04157208371994016,0.9991332409660053,2.6030820491461885e-07,0.0,0.0,0.0,2.6030820491461885e-07,0.0,0.0,0.0,0.0,0.00514444384910779,0.0009059330120730966,0.001319640588305494,2.5e-05,0.0,0.0,0.0,2.5e-05,0.0,0.0,0.0,2.5e-05,0.04208764543174129,-0.007699351617972151,9.800243472517575,2.5e-05,0.0,0.0,0.0,2.5e-05,0.0,0.0,0.0,2.5e-05
404.62,20221,404,620000000,base,-3.979378932078434e-05,-0.0021276813909610085,-0.04157207586118061,0.999133241313162,2.6030820491461885e-07,0.0,0.0,0.0,2.6030820491461885e-07,0.0,0.0,0.0,0.0,-0.005380417000934419,0.008160707350868397,-0.00583773908699468,2.5e-05,0.0,0.0,0.0,2.5e-05,0.0,0.0,0.0,2.5e-05,0.04073409264459392,-0.008676272064890966,9.803306811405477,2.5e-05,0.0,0.0,0.0,2.5e-05,0.0,0.0,0.0,2.5e-05
404.64,20222,404,640000000,base,-3.980213086272278e-05,-0.0021276725295923415,-0.04157206850441355,0.9991332416378016,2.6030820491461885e-07,0.0,0.0,0.0,2.6030820491461885e-07,0.0,0.0,0.0,0.0,-0.0032492204153460485,0.006184279880517301,-0.0002586579426219508,2.5e-05,0.0,0.0,0.0,2.5e-05,0.0,0.0,0.0,2.5e-05,0.038964101495417854,0.0015379102463896812,9.801972819013288,2.5e-05,0.0,0.0,0.0,2.5e-05,0.0,0.0,0.0,2.5e-05
404.66,20223,404,660000000,base,-3.999560093321898e-05,-0.002127889870083737,-0.04157206075979383,0.9991332414894604,2.6030820491461885e-07,0.0,0.0,0.0,2.6030820491461885e-07,0.0,0.0,0.0,0.0,0.007707760220725338,0.008645565947940127,5.2686062875296464e-05,2.5e-05,0.0,0.0,0.0,2.5e-05,0.0,0.0,0.0,2.5e-05,0.04982943375472625,-0.0011539588109907295,9.801877682690563,2.5e-05,0.0,0.0,0.0,2.5e-05,0.0,0.0,0.0,2.5e-05
404.68,20224,404,680000000,base,-3.999424661677384e-05,-0.0021281074394012794,-0.041572053446092584,0.9991332413304352,2.6030820491461885e-07,0.0,0.0,0.0,2.6030820491461885e-07,0.0,0.0,0.0,0.0,0.003048531773823994,0.0011729317995513413,-0.0093655852582918,2.5e-05,0.0,0.0,0.0,2.5e-05,0.0,0.0,0.0,2.5e-05,0.04109213240121782,-0.0027896943403399473,9.805732050269581,2.5e-05,0.0,0.0,0.0,2.5e-05,0.0,0.0,0.0,2.5e-05
404.7,20225,404,700000000,base,-4.004976555374821e-05,-0.002128271020107695,-0.041572046002711444,0.9991332412894837,2.6030820491461885e-07,0.0,0.0,0.0,2.6030820491461885e-07,0.0,0.0,0.0,0.0,0.011486272725169996,0.010251020236763535,-0.002863395181978881,2.5e-05,0.0,0.0,0.0,2.5e-05,0.0,0.0,0.0,2.5e-05,0.03619812596430446,0.0035037162865049747,9.80915625799457,2.5e-05,0.0,0.0,0.0,2.5e-05,0.0,0.0,0.0,2.5e-05
404.72,20226,404,720000000,base,-4.013258224848339e-05,-0.0021283298605424177,-0.04157203849042384,0.9991332414733939,2.6030820491461885e-07,0.0,0.0,0.0,2.6030820491461885e-07,0.0,0.0,0.0,0.0,0.012867754517491526,0.004257886805864921,-0.0018129630059013327,2.5e-05,0.0,0.0,0.0,2.5e-05,0.0,0.0,0.0,2.5e-05,0.042628207100349605,7.2416607258144e-05,9.80439004453726,2.5e-05,0.0,0.0,0.0,2.5e-05,0.0,0.0,0.0,2.5e-05
404.74,20227,404,740000000,base,-4.013781100973272e-05,-0.002128367618536974,-0.04157203114829139,0.999133241698244,2.6030820491461885e-07,0.0,0.0,0.0,2.6030820491461885e-07,0.0,0.0,0.0,0.0,0.002002241957930408,0.004723753766131096,-0.00869923572777141,2.5e-05,0.0,0.0,0.0,2.5e-05,0.0,0.0,0.0,2.5e-05,0.0336849872952022,0.0027764801566748506,9.80439127352114,2.5e-05,0.0,0.0,0.0,2.5e-05,0.0,0.0,0.0,2.5e-05
404.76,20228,404,760000000,base,-4.0208086555188105e-05,-0.002128229915005711,-0.04157202364758608,0.999133242300837,2.6030820491461885e-07,0.0,0.0,0.0,2.6030820491461885e-07,0.0,0.0,0.0,0.0,-0.0019467933016756988,0.002450441299461892,-0.008319290575410315,2.5e-05,0.0,0.0,0.0,2.5e-05,0.0,0.0,0.0,2.5e-05,0.04897002152562656,0.003470812074162545,9.801349412189955,2.5e-05,0.0,0.0,0.0,2.5e-05,0.0,0.0,0.0,2.5e-05
404.78,20229,404,780000000,base,-4.021178684162393e-05,-0.002128335284615631,-0.04157201631630377,0.9991332423812778,2.6030820491461885e-07,0.0,0.0,0.0,2.6030820491461885e-07,0.0,0.0,0.0,0.0,-0.007519450518338618,0.006837893535255313,0.003902818423609212,2.5e-05,0.0,0.0,0.0,2.5e-05,0.0,0.0,0.0,2.5e-05,0.04137681675564633,-0.0034035493523208895,9.797150328846698,2.5e-05,0.0,0.0,0.0,2.5e-05,0.0,0.0,0.0,2.5e-05
404.8,20230,404,800000000,base,-4.015190824284256e-05,-0.0021284018789409415,-0.04157200912266437,0.9991332425411393,2.6030820491461885e-07,0.0,0.0,0.0,2.6030820491461885e-07,0.0,0.0,0.0,0.0,0.004947510271367505,0.00035662660674333263,0.0029238500836004876,2.5e-05,0.0,0.0,0.0,2.5e-05,0.0,0.0,0.0,2.5e-05,0.050534689617848426,0.0010472912343988537,9.80891162318773,2.5e-05,0.0,0.0,0.0,2.5e-05,0.0,0.0,0.0,2.5e-05
404.82,20231,404,820000000,base,-4.0260868706142235e-05,-0.0021283890611069793,-0.04157200154984809,0.9991332428791496,2.6030820491461885e-07,0.0,0.0,0.0,2.6030820491461885e-07,0.0,0.0,0.0,0.0,0.002820960091046079,0.0013465690318723367,0.001226132682417525,2.5e-05,0.0,0.0,0.0,2.5e-05,0.0,0.0,0.0,2.5e-05,0.03632160314138873,-0.0034379860882469667,9.810531812313917,2.5e-05,0.0,0.0,0.0,2.5e-05,0.0,0.0,0.0,2.5e-05
404.84,20232,404,840000000,base,-4.036383195197711e-05,-0.0021284517005955997,-0.04157199399772969,0.9991332430557858,2.6030820491461885e-07,0.0,0.0,0.0,2.6030820491461885e-07,0.0,0.0,0.0,0.0,0.005481699958288133,0.0048431051160035135,0.0005245312080834623,2.5e-05,0.0,0.0,0.0,2.5e-05,0.0,0.0,0.0,2.5e-05,0.049178537653210105,0.0031047815922881157,9.802142676171913,2.5e-05,0.0,0.0,0.0,2.5e-05,0.0,0.0,0.0,2.5e-05
404.86,20233,404,860000000,base,-4.042357738519317e-05,-0.002128478151833412,-0.04157198653852653,0.999133243307384,2.6030820491461885e-07,0.0,0.0,0.0,2.6030820491461885e-07,0.0,0.0,0.0,0.0,-0.001411042905845772,0.0028584159538090144,-0.0021597789251121702,2.5e-05,0.0,0.0,0.0,2.5e-05,0.0,0.0,0.0,2.5e-05,0.029931909162379346,-0.0013031498128745094,9.811737000674203,2.5e-05,0.0,0.0,0.0,2.5e-05,0.0,0.0,0.0,2.5e-05
404.88,20234,404,880000000,base,-4.038023531825777e-05,-0.002128317097994092,-0.04157197929092367,0.9991332439537792,2.6030820491461885e-07,0.0,0.0,0.0,2.6030820491461885e-07,0.0,0.0,0.0,0.0,0.0030016086556430743,-0.0019622497227583732,-0.002688112544787585,2.5e-05,0.0,0.0,0.0,2.5e-05,0.0,0.0,0.0,2.5e-05,0.04059715316537176,0.0009914270912840415,9.800632443041074,2.5e-05,0.0,0.0,0.0,2.5e-05,0.0,0.0,0.0,2.5e-05
404.9,20235,404,900000000,base,-4.0314821189014094e-05,-0.002128386315678967,-0.04157197211333726,0.9991332441076187,2.6030820491461885e-07,0.0,0.0,0.0,2.6030820491461885e-07,0.0,0.0,0.0,0.0,0.001457638340934766,0.009898461996519926,-0.0030564777479176186,2.5e-05,0.0,0.0,0.0,2.5e-05,0.0,0.0,0.0,2.5e-05,0.04543374647337023,0.003676553345776637,9.801656673581018,2.5e-05,0.0,0.0,0.0,2.5e-05,0.0,0.0,0.0,2.5e-05
404.92,20236,404,920000000,base,-4.015070527496886e-05,-0.002128441835376006,-0.04157196515318589,0.9991332442855541,2.6030820491461885e-07,0.0,0.0,0.0,2.6030820491461885e-07,0.0,0.0,0.0,0.0,0.004044798618215885,0.002017395846377098,-0.004165219076076175,2.5e-05,0.0,0.0,0.0,2.5e-05,0.0,0.0,0.0,2.5e-05,0.03477540919811069,0.006142903166298011,9.815531373845035,2.5e-05,0.0,0.0,0.0,2.5e-05,0.0,0.0,0.0,2.5e-05
404.94,20237,404,940000000,base,-4.009026279078904e-05,-0.0021284025702325024,-0.04157195795637209,0.9991332446710717,2.6030820491461885e-07,0.0,0.0,0.0,2.6030820491461885e-07,0.0,0.0,0.0,0.0,0.003965562495368708,0.006966016290150529,-0.0009206361101499528,2.5e-05,0.0,0.0,0.0,2.5e-05,0.0,0.0,0.0,2.5e-05,0.04332342454592653,-0.00013774861042564995,9.807026177047405,2.5e-05,0.0,0.0,0.0,2.5e-05,0.0,0.0,0.0,2.5e-05
404.96,20238,404,960000000,base,-3.9995730862938264e-05,-0.0021283869185032083,-0.041571950837656586,0.9991332450043978,2.6030820491461885e-07,0.0,0.0,0.0,2.6030820491461885e-07,0.0,0.0,0.0,0.0,0.005962673925191505,0.007009051444302533,-0.004461947086078096,2.5e-05,0.0,0.0,0.0,2.5e-05,0.0,0.0,0.0,2.5e-05,0.04863657522863555,0.002774772867196978,9.802837695439676,2.5e-05,0.0,0.0,0.0,2.5e-05,0.0,0.0,0.0,2.5e-05
404.98,20239,404,980000000,base,-3.9904691302857755e-05,-0.0021280237591349864,-0.04157194368091169,0.999133246079364,2.6030820491461885e-07,0.0,0.0,0.0,2.6030820491461885e-07,0.0,0.0,0.0,0.0,0.0014481112924140131,0.00837437351406824,-0.0020379490659002395,2.5e-05,0.0,0.0,0.0,2.5e-05,0.0,0.0,0.0,2.5e-05,0.0459713041616578,-0.010341279056040322,9.803188861719997,2.5e-05,0.0,0.0,0.0,2.5e-05,0.0,0.0,0.0,2.5e-05
405.0,20240,405,0,base,-4.010437180822028e-05,-0.002128099401708667,-0.041571935922149014,0.999133246233084,2.6030820491461885e-07,0.0,0.0,0.0,2.6030820491461885e-07,0.0,0.0,0.0,0.0,-0.0004542769899959654,0.006511036251352016,0.003845383860642901,2.5e-05,0.0,0.0,0.0,2.5e-05,0.0,0.0,0.0,2.5e-05,0.040410583454282,0.008259729919227935,9.800131917890205,2.5e-05,0.0,0.0,0.0,2.5e-05,0.0,0.0,0.0,2.5e-05
405.02,20241,405,20000000,base,-3.996148164440014e-05,-0.0021279470695894542,-0.04157192890015663,0.999133246855428,2.6030820491461885e-07,0.0,0.0,0.0,2.6030820491461885e-07,0.0,0.0,0.0,0.0,0.0029747388812674702,-0.00195532282276886,-0.005341716847099585,2.5e-05,0.0,0.0,0.0,2.5e-05,0.0,0.0,0.0,2.5e-05,0.03469859287071195,-0.0018764625375634315,9.811225642037831,2.5e-05,0.0,0.0,0.0,2.5e-05,0.0,0.0,0.0,2.5e-05
405.04,20242,405,40000000,base,-3.972888442281563e-05,-0.002127889431076408,-0.04157192208541672,0.9991332472710078,2.6030820491461885e-07,0.0,0.0,0.0,2.6030820491461885e-07,0.0,0.0,0.0,0.0,0.00189807057590719,0.0004334594529582991,0.0007691680523791273,2.5e-05,0.0,0.0,0.0,2.5e-05,0.0,0.0,0.0,2.5e-05,0.04111606928412483,-0.00033926742322809285,9.808013714615624,2.5e-05,0.0,0.0,0.0,2.5e-05,0.0,0.0,0.0,2.5e-05
405.06,20243,405,60000000,base,-3.967097700167494e-05,-0.0021278157241952688,-0.041571914884235374,0.9991332477299089,2.6030820491461885e-07,0.0,0.0,0.0,2.6030820491461885e-07,0.0,0.0,0.0,0.0,0.0013999972747756727,0.015299478835477338,0.0022844717925144193,2.5e-05,0.0,0.0,0.0,2.5e-05,0.0,0.0,0.0,2.5e-05,0.05121767938506766,-0.0011426268437481632,9.809181583107536,2.5e-05,0.0,0.0,0.0,2.5e-05,0.0,0.0,0.0,2.5e-05
405.08,20244,405,80000000,base,-3.9455394797776774e-05,-0.0021277718822184364,-0.0415719080345915,0.9991332481168126,2.6030820491461885e-07,0.0,0.0,0.0,2.6030820491461885e-07,0.0,0.0,0.0,0.0,0.002042742840494235,-0.003650843289242094,0.0032778304228285203,2.5e-05,0.0,0.0,0.0,2.5e-05,0.0,0.0,0.0,2.5e-05,0.030555849611138785,-0.0020123664908025946,9.807855421161872,2.5e-05,0.0,0.0,0.0,2.5e-05,0.0,0.0,0.0,2.5e-05
405.1,20245,405,100000000,base,-3.955428134562636e-05,-0.002127697514937767,-0.041571900488578964,0.9991332485852481,2.6030820491461885e-07,0.0,0.0,0.0,2.6030820491461885e-07,0.0,0.0,0.0,0.0,0.009427517144691583,0.00925681095866516,0.005262084795355474,2.5e-05,0.0,0.0,0.0,2.5e-05,0.0,0.0,0.0,2.5e-05,0.04665628998456167,0.0007116808187216459,9.795152777798162,2.5e-05,0.0,0.0,0.0,2.5e-05,0.0,0.0,0.0,2.5e-05
405.12,20246,405,120000000,base,-3.9555715011353385e-05,-0.002127646420326047,-0.04157189316054255,0.9991332489989031,2.6030820491461885e-07,0.0,0.0,0.0,2.6030820491461885e-07,0.0,0.0,0.0,0.0,-0.004580349635250872,0.008242596261169277,-0.0028364386394901693,2.5e-05,0.0,0.0,0.0,2.5e-05,0.0,0.0,0.0,2.5e-05,0.04818175984962506,-0.005727819863163619,9.810803209142538,2.5e-05,0.0,0.0,0.0,2.5e-05,0.0,0.0,0.0,2.5e-05
405.14,20247,405,140000000,base,-3.9544340495389574e-05,-0.002127494139812834,-0.04157188585246303,0.999133249627696,2.6030820491461885e-07,0.0,0.0,0.0,2.6030820491461885e-07,0.0,0.0,0.0,0.0,0.005847154642442609,0.0073061337294629235,-0.004847189142055406,2.5e-05,0.0,0.0,0.0,2.5e-05,0.0,0.0,0.0,2.5e-05,0.0453510163638998,-0.007354308805311646,9.805787923835373,2.5e-05,0.0,0.0,0.0,2.5e-05,0.0,0.0,0.0,2.5e-05
405.16,20248,405,160000000,base,-3.9612222783879574e-05,-0.0021274955495698324,-0.041571878383831425,0.9991332499327596,2.6030820491461885e-07,0.0,0.0,0.0,2.6030820491461885e-07,0.0,0.0,0.0,0.0,-0.0012272686589898801,0.011079959294769137,-0.01192222816184347,2.5e-05,0.0,0.0,0.0,2.5e-05,0.0,0.0,0.0,2.5e-05,0.041040742886820795,-0.0049048761842198935,9.804525373903711,2.5e-05,0.0,0.0,0.0,2.5e-05,0.0,0.0,0.0,2.5e-05
405.18,20249,405,180000000,base,-3.961512148397096e-05,-0.0021275145294757693,-0.04157187106097416,0.9991332501969188,2.6030820491461885e-07,0.0,0.0,0.0,2.6030820491461885e-07,0.0,0.0,0.0,0.0,-0.0044367575347573785,0.0075833317870108155,-0.00498280129694906,2.5e-05,0.0,0.0,0.0,2.5e-05,0.0,0.0,0.0,2.5e-05,0.04877922029057329,0.009215955161390395,9.804679748062103,2.5e-05,0.0,0.0,0.0,2.5e-05,0.0,0.0,0.0,2.5e-05
405.2,20250,405,200000000,base,-3.956125214204564e-05,-0.002127563023330149,-0.04157186386681825,0.999133250395125,2.6030820491461885e-07,0.0,0.0,0.0,2.6030820491461885e-07,0.0,0.0,0.0,0.0,0.0008973803926159499,0.003398185023995966,0.002922377276577389,2.5e-05,0.0,0.0,0.0,2.5e-05,0.0,0.0,0.0,2.5e-05,0.03708995682673975,-0.001832040723928075,9.803590099887028,2.5e-05,0.0,0.0,0.0,2.5e-05,0.0,0.0,0.0,2.5e-05
405.22,20251,405,220000000,base,-3.9556591451516674e-05,-0.002127431221923092,-0.041571856548612965,0.9991332509804552,2.6030820491461885e-07,0.0,0.0,0.0,2.6030820491461885e-07,0.0,0.0,0.0,0.0,0.0014907597877258712,0.0015034372684423678,-0.0016497125385555212,2.5e-05,0.0,0.0,0.0,2.5e-05,0.0,0.0,0.0,2.5e-05,0.04049742985306988,0.006900031083991251,9.808278873289897,2.5e-05,0.0,0.0,0.0,2.5e-05,0.0,0.0,0.0,2.5e-05
405.24,20252,405,240000000,base,-3.961605184728658e-05,-0.002127467205934062,-0.0415718491045368,0.9991332512112114,2.6030820491461885e-07,0.0,0.0,0.0,2.6030820491461885e-07,0.0,0.0,0.0,0.0,-0.007882566596887124,0.004808676698907914,0.0020749555371327106,2.5e-05,0.0,0.0,0.0,2.5e-05,0.0,0.0,0.0,2.5e-05,0.04192664127296839,-0.0006301053504680586,9.811212321274065,2.5e-05,0.0,0.0,0.0,2.5e-05,0.0,0.0,0.0,2.5e-05
405.26,20253,405,260000000,base,-3.961349916013275e-05,-0.0021273648749235937,-0.04157184178574405,0.9991332517337217,2.6030820491461885e-07,0.0,0.0,0.0,2.6030820491461885e-07,0.0,0.0,0.0,0.0,0.004533762966555621,0.004326146474388462,-0.009395182649476674,2.5e-05,0.0,0.0,0.0,2.5e-05,0.0,0.0,0.0,2.5e-05,0.034378883375657004,0.0043269651232500875,9.810322824067592,2.5e-05,0.0,0.0,0.0,2.5e-05,0.0,0.0,0.0,2.5e-05
405.28,20254,405,280000000,base,-3.959089495823499e-05,-0.0021269981833529467,-0.04157183448831174,0.9991332528189447,2.6030820491461885e-07,0.0,0.0,0.0,2.6030820491461885e-07,0.0,0.0,0.0,0.0,0.0022418679826655156,0.006479915879224842,-0.0015879124160364684,2.5e-05,0.0,0.0,0.0,2.5e-05,0.0,0.0,0.0,2.5e-05,0.0362844603661504,-0.0001596450783999811,9.814657578273927,2.5e-05,0.0,0.0,0.0,2.5e-05,0.0,0.0,0.0,2.5e-05
405.3,20255,405,300000000,base,-3.956467170014454e-05,-0.0021268045316055113,-0.04157182721505136,0.9991332535348442,2.6030820491461885e-07,0.0,0.0,0.0,2.6030820491461885e-07,0.0,0.0,0.0,0.0,0.003928870653747934,0.006112187093553094,-0.016528755877621953,2.5e-05,0.0,0.0,0.0,2.5e-05,0.0,0.0,0.0,2.5e-05,0.04790424611407383,0.002285190396176657,9.7974417926026,2.5e-05,0.0,0.0,0.0,2.5e-05,0.0,0.0,0.0,2.5e-05
405.32,20256,405,320000000,base,-3.946457854013363e-05,-0.0021267567725432148,-0.041571820118658113,0.9991332539357298,2.6030820491461885e-07,0.0,0.0,0.0,2.6030820491461885e-07,0.0,0.0,0.0,0.0,0.00016103023277242676,0.009954330726682921,0.0020110308876200166,2.5e-05,0.0,0.0,0.0,2.5e-05,0.0,0.0,0.0,2.5e-05,0.04324338702813006,0.008695783393185316,9.806874615653584,2.5e-05,0.0,0.0,0.0,2.5e-05,0.0,0.0,0.0,2.5e-05
405.34,20257,405,340000000,base,-3.9525241991736706e-05,-0.0021268792103888413,-0.041571812683240596,0.9991332539820749,2.6030820491461885e-07,0.0,0.0,0.0,2.6030820491461885e-07,0.0,0.0,0.0,0.0,-0.008780639645000683,0.0050297151708555195,0.003307639858621301,2.5e-05,0.0,0.0,0.0,2.5e-05,0.0,0.0,0.0,2.5e-05,0.04064680285229193,0.0060551205513017835,9.806912072279253,2.5e-05,0.0,0.0,0.0,2.5e-05,0.0,0.0,0.0,2.5e-05
405.36,20258,405,360000000,base,-3.96175262899566e-05,-0.0021268825138489036,-0.041571805168068014,0.9991332542840782,2.6030820491461885e-07,0.0,0.0,0.0,2.6030820491461885e-07,0.0,0.0,0.0,0.0,0.0012999920965692244,-0.0004137289197378739,0.011049337793746368,2.5e-05,0.0,0.0,0.0,2.5e-05,0.0,0.0,0.0,2.5e-05,0.047822426838355636,0.0010667433497676467,9.814522071265747,2.5e-05,0.0,0.0,0.0,2.5e-05,0.0,0.0,0.0,2.5e-05
405.38,20259,405,380000000,base,-3.9821612794625804e-05,-0.0021270475050900236,-0.041571797421201574,0.9991332542470603,2.6030820491461885e-07,0.0,0.0,0.0,2.6030820491461885e-07,0.0,0.0,0.0,0.0,-0.0038157124086809708,0.01472284972662447,-0.0014011331638935517,2.5e-05,0.0,0.0,0.0,2.5e-05,0.0,0.0,0.0,2.5e-05,0.051009885303423416,-0.007456879978379022,9.802614336819042,2.5e-05,0.0,0.0,0.0,2.5e-05,0.0,0.0,0.0,2.5e-05
405.4,20260,405,400000000,base,-3.9736490510407486e-05,-0.0021270560408090493,-0.041571790299653834,0.9991332545285898,2.6030820491461885e-07,0.0,0.0,0.0,2.6030820491461885e-07,0.0,0.0,0.0,0.0,0.00693886147278851,0.0018077482232140784,-0.00430486015667759,2.5e-05,0.0,0.0,0.0,2.5e-05,0.0,0.0,0.0,2.5e-05,0.04132404310810306,0.00566164506842874,9.811542547833543,2.5e-05,0.0,0.0,0.0,2.5e-05,0.0,0.0,0.0,2.5e-05
405.42,20261,405,420000000,base,-3.9664526990569284e-05,-0.00212713419334369,-0.041571783155991186,0.9991332546622997,2.6030820491461885e-07,0.0,0.0,0.0,2.6030820491461885e-07,0.0,0.0,0.0,0.0,-0.00034655056567486767,0.010975740927080833,-0.005632043761405223,2.5e-05,0.0,0.0,0.0,2.5e-05,0.0,0.0,0.0,2.5e-05,0.04910573261465409,-0.0006623145981341698,9.79812802832118,2.5e-05,0.0,0.0,0.0,2.5e-05,0.0,0.0,0.0,2.5e-05
405.44,20262,405,440000000,base,-3.973347216881022e-05,-0.002127102704673981,-0.04157177569210829,0.9991332550371546,2.6030820491461885e-07,0.0,0.0,0.0,2.6030820491461885e-07,0.0,0.0,0.0,0.0,0.008587959535744883,0.009075189936231853,-0.00038569769725871274,2.5e-05,0.0,0.0,0.0,2.5e-05,0.0,0.0,0.0,2.5e-05,0.035246028915597756,0.005363497550456877,9.811096192248714,2.5e-05,0.0,0.0,0.0,2.5e-05,0.0,0.0,0.0,2.5e-05
405.46,20263,405,460000000,base,-3.964831988848561e-05,-0.002127378978886279,-0.04157176859671275,0.9991332547475499,2.6030820491461885e-07,0.0,0.0,0.0,2.6030820491461885e-07,0.0,0.0,0.0,0.0,0.005543565025031592,0.002155602498285263,-0.005777779960702054,2.5e-05,0.0,0.0,0.0,2.5e-05,0.0,0.0,0.0,2.5e-05,0.037032495987453985,0.0015280520708261338,9.798295632731687,2.5e-05,0.0,0.0,0.0,2.5e-05,0.0,0.0,0.0,2.5e-05
405.48,20264,405,480000000,base,-3.973429195875519e-05,-0.0021272639533063426,-0.04157176108919853,0.9991332553014145,2.6030820491461885e-07,0.0,0.0,0.0,2.6030820491461885e-07,0.0,0.0,0.0,0.0,0.0065538932939549835,-0.002659725819587896,-0.002754490595836911,2.5e-05,0.0,0.0,0.0,2.5e-05,0.0,0.0,0.0,2.5e-05,0.0392498621768341,0.0044189189089432965,9.809956346973854,2.5e-05,0.0,0.0,0.0,2.5e-05,0.0,0.0,0.0,2.5e-05
405.5,20265,405,500000000,base,-3.9883049180889244e-05,-0.002127418960862606,-0.04157175346790756,0.9991332552825527,2.6030820491461885e-07,0.0,0.0,0.0,2.6030820491461885e-07,0.0,0.0,0.0,0.0,-0.00030729923581406383,0.0002609989153945475,0.006591676119612622,2.5e-05,0.0,0.0,0.0,2.5e-05,0.0,0.0,0.0,2.5e-05,0.04480530054674271,0.006170127920004987,9.803134877978808,2.5e-05,0.0,0.0,0.0,2.5e-05,0.0,0.0,0.0,2.5e-05
405.52,20266,405,520000000,base,-4.037921830634718e-05,-0.0021276391245037053,-0.04157174508604168,0.9991332551425638,2.6030820491461885e-07,0.0,0.0,0.0,2.6030820491461885e-07,0.0,0.0,0.0,0.0,-0.0019387128946779177,0.003284409784756876,0.005348910507926883,2.5e-05,0.0,0.0,0.0,2.5e-05,0.0,0.0,0.0,2.5e-05,0.038004889956474275,-0.006212798923664369,9.81062940022076,2.5e-05,0.0,0.0,0.0,2.5e-05,0.0,0.0,0.0,2.5e-05
405.54,20267,405,540000000,base,-4.034329221443327e-05,-0.0021275077814763375,-0.04157173784837724,0.9991332557248429,2.6030820491461885e-07,0.0,0.0,0.0,2.6030820491461885e-07,0.0,0.0,0.0,0.0,0.0029757660526340923,0.012783940775705898,-0.004380823881404228,2.5e-05,0.0,0.0,0.0,2.5e-05,0.0,0.0,0.0,2.5e-05,0.036030344982416786,-0.00017725627439093834,9.804794274497622,2.5e-05,0.0,0.0,0.0,2.5e-05,0.0,0.0,0.0,2.5e-05
405.56,20268,405,560000000,base,-4.039799956829667e-05,-0.0021273296155595966,-0.04157173040711436,0.9991332564116091,2.6030820491461885e-07,0.0,0.0,0.0,2.6030820491461885e-07,0.0,0.0,0.0,0.0,0.002993048728416368,0.02173094177561082,-0.0031221404018372564,2.5e-05,0.0,0.0,0.0,2.5e-05,0.0,0.0,0.0,2.5e-05,0.03308598321108462,0.0020821392170257817,9.801886031729932,2.5e-05,0.0,0.0,0.0,2.5e-05,0.0,0.0,0.0,2.5e-05
405.58,20269,405,580000000,base,-4.0461334774591706e-05,-0.0021275458947410428,-0.041571722982781625,0.9991332562574369,2.6030820491461885e-07,0.0,0.0,0.0,2.6030820491461885e-07,0.0,0.0,0.0,0.0,-0.00031236144483494637,0.0041950168169856104,-0.0038796587515198986,2.5e-05,0.0,0.0,0.0,2.5e-05,0.0,0.0,0.0,2.5e-05,0.040162016389531124,0.0038849379099400753,9.809016451166118,2.5e-05,0.0,0.0,0.0,2.5e-05,0.0,0.0,0.0,2.5e-05
405.6,20270,405,600000000,base,-4.051671006794515e-05,-0.0021275008171922575,-0.041571715553374015,0.9991332566603006,2.6030820491461885e-07,0.0,0.0,0.0,2.6030820491461885e-07,0.0,0.0,0.0,0.0,0.002440752142167204,0.005147161864580482,-0.0017968113284898121,2.5e-05,0.0,0.0,0.0,2.5e-05,0.0,0.0,0.0,2.5e-05,0.04540166866456839,-0.00840752191570036,9.81311152207122,2.5e-05,0.0,0.0,0.0,2.5e-05,0.0,0.0,0.0,2.5e-05
405.62,20271,405,620000000,base,-4.0462219811503736e-05,-0.002127677667727364,-0.041571708387117434,0.999133256584089,2.6030820491461885e-07,0.0,0.0,0.0,2.6030820491461885e-07,0.0,0.0,0.0,0.0,0.0006956557505532763,0.0073985168879955425,-0.004124521794097422,2.5e-05,0.0,0.0,0.0,2.5e-05,0.0,0.0,0.0,2.5e-05,0.04636063161505631,-0.0004349688183376936,9.806760511545484,2.5e-05,0.0,0.0,0.0,2.5e-05,0.0,0.0,0.0,2.5e-05
405.64,20272,405,640000000,base,-4.0456861947541886e-05,-0.002127730730885587,-0.04157170110202048,0.999133256774422,2.6030820491461885e-07,0.0,0.0,0.0,2.6030820491461885e-07,0.0,0.0,0.0,0.0,0.007403452257545812,0.009266998253266776,-0.0025920713801028893,2.5e-05,0.0,0.0,0.0,2.5e-05,0.0,0.0,0.0,2.5e-05,0.05004156831906036,-0.00741111192646225,9.805678126150042,2.5e-05,0.0,0.0,0.0,2.5e-05,0.0,0.0,0.0,2.5e-05
405.66,20273,405,660000000,base,-4.048227007226842e-05,-0.002127885033821663,-0.04157169375875573,0.9991332567503179,2.6030820491461885e-07,0.0,0.0,0.0,2.6030820491461885e-07,0.0,0.0,0.0,0.0,-0.005382365898528998,0.008939549308699384,0.005521076090281584,2.5e-05,0.0,0.0,0.0,2.5e-05,0.0,0.0,0.0,2.5e-05,0.04295156305980426,-0.004714902060258836,9.794472961005939,2.5e-05,0.0,0.0,0.0,2.5e-05,0.0,0.0,0.0,2.5e-05
405.68,20274,405,680000000,base,-4.053595235719329e-05,-0.002127783689625476,-0.041571686330919434,0.9991332572730277,2.6030820491461885e-07,0.0,0.0,0.0,2.6030820491461885e-07,0.0,0.0,0.0,0.0,0.0008148233943764611,0.012095632973500806,-0.0009211490065223901,2.5e-05,0.0,0.0,0.0,2.5e-05,0.0,0.0,0.0,2.5e-05,0.044425928622325146,-0.0016539640411375438,9.804046394681244,2.5e-05,0.0,0.0,0.0,2.5e-05,0.0,0.0,0.0,2.5e-05
405.7,20275,405,700000000,base,-4.05611026600871e-05,-0.002127718681685554,-0.04157167897004789,0.9991332577167171,2.6030820491461885e-07,0.0,0.0,0.0,2.6030820491461885e-07,0.0,0.0,0.0,0.0,-0.0029968303152078063,0.0029280250447495685,-0.003965722080557699,2.5e-05,0.0,0.0,0.0,2.5e-05,0.0,0.0,0.0,2.5e-05,0.0410150996904588,-0.0026598618938790276,9.810534045206495,2.5e-05,0.0,0.0,0.0,2.5e-05,0.0,0.0,0.0,2.5e-05
405.72,20276,405,720000000,base,-4.065656283381304e-05,-0.0021279370264763457,-0.04157167147997329,0.999133257559479,2.6030820491461885e-07,0.0,0.0,0.0,2.6030820491461885e-07,0.0,0.0,0.0,0.0,0.001697366648605697,0.005505083645207566,0.0036899907229629605,2.5e-05,0.0,0.0,0.0,2.5e-05,0.0,0.0,0.0,2.5e-05,0.04203745054585975,0.007959108022058596,9.801985597713314,2.5e-05,0.0,0.0,0.0,2.5e-05,0.0,0.0,0.0,2.5e-05
405.74,20277,405,740000000,base,-4.066033691648005e-05,-0.002127880255175574,-0.04157166416847,0.9991332579844492,2.6030820491461885e-07,0.0,0.0,0.0,2.6030820491461885e-07,0.0,0.0,0.0,0.0,-0.006926592097262157,0.014301128984479829,0.004410587774254585,2.5e-05,0.0,0.0,0.0,2.5e-05,0.0,0.0,0.0,2.5e-05,0.046226568438608076,-0.004071374523737336,9.807074336420888,2.5e-05,0.0,0.0,0.0,2.5e-05,0.0,0.0,0.0,2.5e-05
405.76,20278,405,760000000,base,-4.052749586036798e-05,-0.002127941672156919,-0.04157165716990944,0.9991332581502376,2.6030820491461885e-07,0.0,0.0,0.0,2.6030820491461885e-07,0.0,0.0,0.0,0.0,0.0012050177547740428,-0.004328581281316981,0.002769968621734543,2.5e-05,0.0,0.0,0.0,2.5e-05,0.0,0.0,0.0,2.5e-05,0.03974004831493384,0.00013968882260961824,9.812092158000235,2.5e-05,0.0,0.0,0.0,2.5e-05,0.0,0.0,0.0,2.5e-05
405.78,20279,405,780000000,base,-4.05410763809154e-05,-0.0021279950491315917,-0.041571649848030696,0.9991332583406505,2.6030820491461885e-07,0.0,0.0,0.0,2.6030820491461885e-07,0.0,0.0,0.0,0.0,-0.001437585119198111,0.0001929215220068184,0.008378302822442648,2.5e-05,0.0,0.0,0.0,2.5e-05,0.0,0.0,0.0,2.5e-05,0.03846417198570193,-0.010234486280655548,9.801432375079909,2.5e-05,0.0,0.0,0.0,2.5e-05,0.0,0.0,0.0,2.5e-05
405.8,20280,405,800000000,base,-4.053353418022681e-05,-0.002128104207667829,-0.04157164257849544,0.9991332584109288,2.6030820491461885e-07,0.0,0.0,0.0,2.6030820491461885e-07,0.0,0.0,0.0,0.0,-0.0013601473101385424,-0.0023281877351864644,-0.002504248560320902,2.5e-05,0.0,0.0,0.0,2.5e-05,0.0,0.0,0.0,2.5e-05,0.03740272289908736,0.0031237803910635718,9.810165579976113,2.5e-05,0.0,0.0,0.0,2.5e-05,0.0,0.0,0.0,2.5e-05
405.82,20281,405,820000000,base,-4.046432875105907e-05,-0.002128107088157821,-0.04157163543633242,0.9991332587047675,2.6030820491461885e-07,0.0,0.0,0.0,2.6030820491461885e-07,0.0,0.0,0.0,0.0,-0.0023253157561850682,0.0053275556648850995,0.0015038637412810097,2.5e-05,0.0,0.0,0.0,2.5e-05,0.0,0.0,0.0,2.5e-05,0.04107335128526272,0.0013757717053343344,9.8042414960414,2.5e-05,0.0,0.0,0.0,2.5e-05,0.0,0.0,0.0,2.5e-05
405.84,20282,405,840000000,base,-4.0674815817454496e-05,-0.002128009226353192,-0.04157162766828551,0.9991332592278674,2.6030820491461885e-07,0.0,0.0,0.0,2.6030820491461885e-07,0.0,0.0,0.0,0.0,-0.002569312556619282,0.010170864236005269,0.004663483762676113,2.5e-05,0.0,0.0,0.0,2.5e-05,0.0,0.0,0.0,2.5e-05,0.035546401310541376,0.003661201619465255,9.806216475002758,2.5e-05,0.0,0.0,0.0,2.5e-05,0.0,0.0,0.0,2.5e-05
405.86,20283,405,860000000,base,-4.0715213896536936e-05,-0.002128027241122801,-0.041571620286888405,0.9991332594949759,2.6030820491461885e-07,0.0,0.0,0.0,2.6030820491461885e-07,0.0,0.0,0.0,0.0,0.005399931246081808,0.012092523080045096,-0.004436848630266789,2.5e-05,0.0,0.0,0.0,2.5e-05,0.0,0.0,0.0,2.5e-05,0.048871141645467214,-0.0026314031795799642,9.800590195123666,2.5e-05,0.0,0.0,0.0,2.5e-05,0.0,0.0,0.0,2.5e-05
405.88,20284,405,880000000,base,-4.0344294380112204e-05,-0.0021280502388855878,-0.04157161381488609,0.9991332597303249,2.6030820491461885e-07,0.0,0.0,0.0,2.6030820491461885e-07,0.0,0.0,0.0,0.0,0.006608097288447124,0.002160210610693882,9.777721009553218e-05,2.5e-05,0.0,0.0,0.0,2.5e-05,0.0,0.0,0.0,2.5e-05,0.04520182592529346,0.003882641390977413,9.81041978173794,2.5e-05,0.0,0.0,0.0,2.5e-05,0.0,0.0,0.0,2.5e-05
405.9,20285,405,900000000,base,-4.020083526374546e-05,-0.002128150646171852,-0.04157160684826131,0.9991332598121102,2.6030820491461885e-07,0.0,0.0,0.0,2.6030820491461885e-07,0.0,0.0,0.0,0.0,0.007098825908131837,0.01329539861041296,0.000979140690133512,2.5e-05,0.0,0.0,0.0,2.5e-05,0.0,0.0,0.0,2.5e-05,0.05264892872125203,0.010325303510889908,9.79967654395807,2.5e-05,0.0,0.0,0.0,2.5e-05,0.0,0.0,0.0,2.5e-05
405.92,20286,405,920000000,base,-4.02376018198881e-05,-0.002128239463863568,-0.04157159948335884,0.999133259927881,2.6030820491461885e-07,0.0,0.0,0.0,2.6030820491461885e-07,0.0,0.0,0.0,0.0,-0.010759258728414552,0.010994997637571327,0.0012022792722442036,2.5e-05,0.0,0.0,0.0,2.5e-05,0.0,0.0,0.0,2.5e-05,0.046155253649275405,0.00757012154238315,9.804637800013406,2.5e-05,0.0,0.0,0.0,2.5e-05,0.0,0.0,0.0,2.5e-05
405.94,20287,405,940000000,base,-4.034300857729246e-05,-0.002128142716605855,-0.04157159195101421,0.9991332604431092,2.6030820491461885e-07,0.0,0.0,0.0,2.6030820491461885e-07,0.0,0.0,0.0,0.0,0.003239708505592991,0.004247827378195052,-0.005344590248585939,2.5e-05,0.0,0.0,0.0,2.5e-05,0.0,0.0,0.0,2.5e-05,0.02963207900251372,0.003943221841685043,9.815381722251924,2.5e-05,0.0,0.0,0.0,2.5e-05,0.0,0.0,0.0,2.5e-05
405.96,20288,405,960000000,base,-4.027861324518923e-05,-0.0021280562685752,-0.0415715847952443,0.9991332609275716,2.6030820491461885e-07,0.0,0.0,0.0,2.6030820491461885e-07,0.0,0.0,0.0,0.0,-0.0009703758517807402,0.002707324827445802,0.001116906334159355,2.5e-05,0.0,0.0,0.0,2.5e-05,0.0,0.0,0.0,2.5e-05,0.0427174946497578,0.0026865981555890487,9.810872361579028,2.5e-05,0.0,0.0,0.0,2.5e-05,0.0,0.0,0.0,2.5e-05
405.98,20289,405,980000000,base,-4.0250349371081384e-05,-0.002127876487614963,-0.04157157755205905,0.9991332616129823,2.6030820491461885e-07,0.0,0.0,0.0,2.6030820491461885e-07,0.0,0.0,0.0,0.0,0.0006666348831008842,0.008441385563302466,-0.003913155307710761,2.5e-05,0.0,0.0,0.0,2.5e-05,0.0,0.0,0.0,2.5e-05,0.03296608874038948,0.0017599029053651425,9.80497199074898,2.5e-05,0.0,0.0,0.0,2.5e-05,0.0,0.0,0.0,2.5e-05
406.0,20290,406,0,base,-4.008297927814805e-05,-0.0021278767082628875,-0.04157157063284506,0.999133261907133,2.6030820491461885e-07,0.0,0.0,0.0,2.6030820491461885e-07,0.0,0.0,0.0,0.0,0.007470933342427362,0.011395250886606539,-0.00038991121327384536,2.5e-05,0.0,0.0,0.0,2.5e-05,0.0,0.0,0.0,2.5e-05,0.03954316428000446,-0.004451725155564747,9.81460281827059,2.5e-05,0.0,0.0,0.0,2.5e-05,0.0,0.0,0.0,2.5e-05
406.02,20291,406,20000000,base,-4.003377878083637e-05,-0.0021276808788270344,-0.04157156343588017,0.9991332626255974,2.6030820491461885e-07,0.0,0.0,0.0,2.6030820491461885e-07,0.0,0.0,0.0,0.0,0.005786705641399978,0.002597072897949328,0.0011745328688695612,2.5e-05,0.0,0.0,0.0,2.5e-05,0.0,0.0,0.0,2.5e-05,0.04125366313891758,-0.005478829901606688,9.806220037933105,2.5e-05,0.0,0.0,0.0,2.5e-05,0.0,0.0,0.0,2.5e-05
406.04,20292,406,40000000,base,-4.013164135333136e-05,-0.0021276832708622103,-0.04157155593262862,0.9991332629287699,2.6030820491461885e-07,0.0,0.0,0.0,2.6030820491461885e-07,0.0,0.0,0.0,0.0,0.009189467486104186,0.006772291400303951,0.0001008311316224116,2.5e-05,0.0,0.0,0.0,2.5e-05,0.0,0.0,0.0,2.5e-05,0.049261894575774276,-0.0026217005393317566,9.8165898062184,2.5e-05,0.0,0.0,0.0,2.5e-05,0.0,0.0,0.0,2.5e-05
406.06,20293,406,60000000,base,-4.00171587036133e-05,-0.0021276612420200788,-0.041571548896785444,0.9991332632730172,2.6030820491461885e-07,0.0,0.0,0.0,2.6030820491461885e-07,0.0,0.0,0.0,0.0,0.0029980338680526014,0.007781922420423214,-0.007886133445727772,2.5e-05,0.0,0.0,0.0,2.5e-05,0.0,0.0,0.0,2.5e-05,0.040172324812223166,-0.00111913605183096,9.801201084121036,2.5e-05,0.0,0.0,0.0,2.5e-05,0.0,0.0,0.0,2.5e-05
406.08,20294,406,80000000,base,-4.009130605136161e-05,-0.0021276923803726557,-0.04157154144989852,0.9991332635135821,2.6030820491461885e-07,0.0,0.0,0.0,2.6030820491461885e-07,0.0,0.0,0.0,0.0,0.006817782317610646,0.00698297568921534,-0.0031516362259904826,2.5e-05,0.0,0.0,0.0,2.5e-05,0.0,0.0,0.0,2.5e-05,0.04135900945665477,0.006027443362711521,9.801956889284481,2.5e-05,0.0,0.0,0.0,2.5e-05,0.0,0.0,0.0,2.5e-05
406.1,20295,406,100000000,base,-4.010980687796837e-05,-0.0021277796262806144,-0.04157153413161691,0.9991332636315382,2.6030820491461885e-07,0.0,0.0,0.0,2.6030820491461885e-07,0.0,0.0,0.0,0.0,0.0022619866284877715,0.012142624545515285,-0.010848575828694732,2.5e-05,0.0,0.0,0.0,2.5e-05,0.0,0.0,0.0,2.5e-05,0.03523423965390152,-0.0021508065970680364,9.804450034853133,2.5e-05,0.0,0.0,0.0,2.5e-05,0.0,0.0,0.0,2.5e-05
406.12,20296,406,120000000,base,-4.008449700512801e-05,-0.0021277582721210006,-0.041571526901073214,0.9991332639788757,2.6030820491461885e-07,0.0,0.0,0.0,2.6030820491461885e-07,0.0,0.0,0.0,0.0,-0.0012567673413509993,0.0031348994888630746,0.005448396506473935,2.5e-05,0.0,0.0,0.0,2.5e-05,0.0,0.0,0.0,2.5e-05,0.039693160087648414,-0.00811532293473917,9.807625078542543,2.5e-05,0.0,0.0,0.0,2.5e-05,0.0,0.0,0.0,2.5e-05
406.14,20297,406,140000000,base,-4.015605300341393e-05,-0.0021278021500468276,-0.04157151946318866,0.9991332641920313,2.6030820491461885e-07,0.0,0.0,0.0,2.6030820491461885e-07,0.0,0.0,0.0,0.0,0.0008468568250343901,-0.0022285930034158757,-0.0015283823524864892,2.5e-05,0.0,0.0,0.0,2.5e-05,0.0,0.0,0.0,2.5e-05,0.04179977072760756,0.00478807114464059,9.8019013155472,2.5e-05,0.0,0.0,0.0,2.5e-05,0.0,0.0,0.0,2.5e-05
406.16,20298,406,160000000,base,-4.0417710501223166e-05,-0.002127810560105706,-0.04157151160307946,0.9991332644906104,2.6030820491461885e-07,0.0,0.0,0.0,2.6030820491461885e-07,0.0,0.0,0.0,0.0,-0.005617911495555609,0.013585089739524154,-0.0019544376479356126,2.5e-05,0.0,0.0,0.0,2.5e-05,0.0,0.0,0.0,2.5e-05,0.03902243900816624,-0.011190657305729705,9.802191483933449,2.5e-05,0.0,0.0,0.0,2.5e-05,0.0,0.0,0.0,2.5e-05
406.18,20299,406,180000000,base,-4.03768027817334e-05,-0.0021277661112475044,-0.04157150440705244,0.9991332648863335,2.6030820491461885e-07,0.0,0.0,0.0,2.6030820491461885e-07,0.0,0.0,0.0,0.0,0.002289562207806622,0.0006240773779646437,0.0028185685080320184,2.5e-05,0.0,0.0,0.0,2.5e-05,0.0,0.0,0.0,2.5e-05,0.04250943416113583,0.01190089581381358,9.800912310089986,2.5e-05,0.0,0.0,0.0,2.5e-05,0.0,0.0,0.0,2.5e-05
406.2,20300,406,200000000,base,-4.041906071209522e-05,-0.0021278189323485973,-0.04157149703680087,0.9991332650787933,2.6030820491461885e-07,0.0,0.0,0.0,2.6030820491461885e-07,0.0,0.0,0.0,0.0,0.004721572917123513,0.006052283285405176,0.0011265885354772437,2.5e-05,0.0,0.0,0.0,2.5e-05,0.0,0.0,0.0,2.5e-05,0.03811443295229913,0.005797971855370711,9.808359211155738,2.5e-05,0.0,0.0,0.0,2.5e-05,0.0,0.0,0.0,2.5e-05
406.22,20301,406,220000000,base,-4.0389568966191946e-05,-0.0021278933282323624,-0.041571489827624174,0.9991332652215007,2.6030820491461885e-07,0.0,0.0,0.0,2.6030820491461885e-07,0.0,0.0,0.0,0.0,-0.002947190307702231,0.009497821245612312,0.0060873270257091015,2.5e-05,0.0,0.0,0.0,2.5e-05,0.0,0.0,0.0,2.5e-05,0.042547157488176515,-0.0009236563395828036,9.796649557796426,2.5e-05,0.0,0.0,0.0,2.5e-05,0.0,0.0,0.0,2.5e-05
406.24,20302,406,240000000,base,-4.045576742822941e-05,-0.002128003881270823,-0.04157148241109991,0.9991332652919507,2.6030820491461885e-07,0.0,0.0,0.0,2.6030820491461885e-07,0.0,0.0,0.0,0.0,0.004595591956078171,3.311878890189905e-05,-0.006441923657069252,2.5e-05,0.0,0.0,0.0,2.5e-05,0.0,0.0,0.0,2.5e-05,0.04295685745427136,-0.0006093464470365133,9.804257367744679,2.5e-05,0.0,0.0,0.0,2.5e-05,0.0,0.0,0.0,2.5e-05
406.26,20303,406,260000000,base,-4.053015000184115e-05,-0.0021279675860246864,-0.04157147496408054,0.9991332656760913,2.6030820491461885e-07,0.0,0.0,0.0,2.6030820491461885e-07,0.0,0.0,0.0,0.0,0.005125276766286583,0.007867610377724585,0.00678907875457738,2.5e-05,0.0,0.0,0.0,2.5e-05,0.0,0.0,0.0,2.5e-05,0.03677024312182583,-0.0023317163336817734,9.813970803267395,2.5e-05,0.0,0.0,0.0,2.5e-05,0.0,0.0,0.0,2.5e-05
406.28,20304,406,280000000,base,-4.0356472439196445e-05,-0.002128031638167039,-0.0415714680744978,0.9991332658333588,2.6030820491461885e-07,0.0,0.0,0.0,2.6030820491461885e-07,0.0,0.0,0.0,0.0,-0.007094634338761391,0.0128912033645666,-0.003971581673454713,2.5e-05,0.0,0.0,0.0,2.5e-05,0.0,0.0,0.0,2.5e-05,0.03682122246987162,-0.006191401934999546,9.814695840486806,2.5e-05,0.0,0.0,0.0,2.5e-05,0.0,0.0,0.0,2.5e-05
406.3,20305,406,300000000,base,-4.033503996520804e-05,-0.002128080186474757,-0.04157146084806562,0.999133266031495,2.6030820491461885e-07,0.0,0.0,0.0,2.6030820491461885e-07,0.0,0.0,0.0,0.0,0.0036112530789470126,0.005714815377923194,0.004617645914282732,2.5e-05,0.0,0.0,0.0,2.5e-05,0.0,0.0,0.0,2.5e-05,0.037500417636674215,0.0038531509724356082,9.80518305388221,2.5e-05,0.0,0.0,0.0,2.5e-05,0.0,0.0,0.0,2.5e-05
406.32,20306,406,320000000,base,-4.0397014256215166e-05,-0.002128074247441065,-0.0415714534333,0.9991332663501508,2.6030820491461885e-07,0.0,0.0,0.0,2.6030820491461885e-07,0.0,0.0,0.0,0.0,0.0006003109513140009,0.003944290411319266,-0.0037481164205587984,2.5e-05,0.0,0.0,0.0,2.5e-05,0.0,0.0,0.0,2.5e-05,0.04727760332594831,4.792134147495186e-05,9.801679923699101,2.5e-05,0.0,0.0,0.0,2.5e-05,0.0,0.0,0.0,2.5e-05
406.34,20307,406,340000000,base,-4.053477388789138e-05,-0.0021278977160107547,-0.041571445836640984,0.9991332670366317,2.6030820491461885e-07,0.0,0.0,0.0,2.6030820491461885e-07,0.0,0.0,0.0,0.0,0.007223843824871812,0.003896356880300781,0.005168518756790173,2.5e-05,0.0,0.0,0.0,2.5e-05,0.0,0.0,0.0,2.5e-05,0.03173932977562017,0.005530385669500084,9.804966856912701,2.5e-05,0.0,0.0,0.0,2.5e-05,0.0,0.0,0.0,2.5e-05
406.36,20308,406,360000000,base,-4.060806504392339e-05,-0.0021276589410019913,-0.04157143837747693,0.999133267852514,2.6030820491461885e-07,0.0,0.0,0.0,2.6030820491461885e-07,0.0,0.0,0.0,0.0,0.0015610012852306653,0.008508815784777541,0.00028751511959282014,2.5e-05,0.0,0.0,0.0,2.5e-05,0.0,0.0,0.0,2.5e-05,0.0338276073861527,-0.0007767350004622255,9.8090458746511,2.5e-05,0.0,0.0,0.0,2.5e-05,0.0,0.0,0.0,2.5e-05
406.38,20309,406,380000000,base,-4.06674385529953e-05,-0.002127629552208852,-0.04157143096849174,0.9991332682209515,2.6030820491461885e-07,0.0,0.0,0.0,2.6030820491461885e-07,0.0,0.0,0.0,0.0,0.0003161029147063942,0.009472300019337907,-0.004440625763713503,2.5e-05,0.0,0.0,0.0,2.5e-05,0.0,0.0,0.0,2.5e-05,0.05022846845460516,0.007269151640720154,9.800630622354122,2.5e-05,0.0,0.0,0.0,2.5e-05,0.0,0.0,0.0,2.5e-05
406.399,20310,406,400000000,base,-4.070851633713452e-05,-0.0021275404717499952,-0.04157142359527633,0.9991332687157504,2.6030820491461885e-07,0.0,0.0,0.0,2.6030820491461885e-07,0.0,0.0,0.0,0.0,0.005544999211926392,0.010894690085774292,-0.002174181167270659,2.5e-05,0.0,0.0,0.0,2.5e-05,0.0,0.0,0.0,2.5e-05,0.03369176675863077,-2.2822290365183103e-05,9.801523574328472,2.5e-05,0.0,0.0,0.0,2.5e-05,0.0,0.0,0.0,2.5e-05
406.42,20311,406,420000000,base,-4.082032648412478e-05,-0.0021276940093639955,-0.04157141608829787,0.9991332686965825,2.6030820491461885e-07,0.0,0.0,0.0,2.6030820491461885e-07,0.0,0.0,0.0,0.0,-0.0019633129382662434,0.004811551677943423,-0.005056280276452825,2.5e-05,0.0,0.0,0.0,2.5e-05,0.0,0.0,0.0,2.5e-05,0.0472111407749516,-0.0029767638890678765,9.797442210873152,2.5e-05,0.0,0.0,0.0,2.5e-05,0.0,0.0,0.0,2.5e-05
406.44,20312,406,440000000,base,-4.0669392445514806e-05,-0.0021275755730303966,-0.04157140913786863,0.9991332692441353,2.6030820491461885e-07,0.0,0.0,0.0,2.6030820491461885e-07,0.0,0.0,0.0,0.0,-0.00066692631919409,-0.004902475540510877,0.005078217968168165,2.5e-05,0.0,0.0,0.0,2.5e-05,0.0,0.0,0.0,2.5e-05,0.044337922798202915,0.0016175225059819848,9.808260573990584,2.5e-05,0.0,0.0,0.0,2.5e-05,0.0,0.0,0.0,2.5e-05
406.46,20313,406,460000000,base,-4.0620964010878184e-05,-0.0021275556805913,-0.04157140197062336,0.9991332695866753,2.6030820491461885e-07,0.0,0.0,0.0,2.6030820491461885e-07,0.0,0.0,0.0,0.0,0.009176932008667184,0.00929916646318425,-0.0004920967870569412,2.5e-05,0.0,0.0,0.0,2.5e-05,0.0,0.0,0.0,2.5e-05,0.035018317139694416,0.003925203253913908,9.806840871584882,2.5e-05,0.0,0.0,0.0,2.5e-05,0.0,0.0,0.0,2.5e-05
406.48,20314,406,480000000,base,-4.072913086827741e-05,-0.0021276034930450896,-0.04157139446436561,0.9991332697927753,2.6030820491461885e-07,0.0,0.0,0.0,2.6030820491461885e-07,0.0,0.0,0.0,0.0,-0.0024252440003520396,0.012466150973411092,0.007691674746324371,2.5e-05,0.0,0.0,0.0,2.5e-05,0.0,0.0,0.0,2.5e-05,0.03949019381234923,0.005446200563728379,9.803937889255982,2.5e-05,0.0,0.0,0.0,2.5e-05,0.0,0.0,0.0,2.5e-05
406.5,20315,406,500000000,base,-4.072365229364842e-05,-0.002127512134424529,-0.041571387197308934,0.9991332702899015,2.6030820491461885e-07,0.0,0.0,0.0,2.6030820491461885e-07,0.0,0.0,0.0,0.0,0.00719245376858996,0.005737792762088489,-0.0006632682529440408,2.5e-05,0.0,0.0,0.0,2.5e-05,0.0,0.0,0.0,2.5e-05,0.037911761653973225,0.008790311469172921,9.801575489000921,2.5e-05,0.0,0.0,0.0,2.5e-05,0.0,0.0,0.0,2.5e-05
406.52,20316,406,520000000,base,-4.087587758596269e-05,-0.0021275890093896336,-0.041571379597788505,0.9991332704361849,2.6030820491461885e-07,0.0,0.0,0.0,2.6030820491461885e-07,0.0,0.0,0.0,0.0,0.003872109847782665,-0.0010232523984657176,0.0058777966336651345,2.5e-05,0.0,0.0,0.0,2.5e-05,0.0,0.0,0.0,2.5e-05,0.038043405288498075,0.011057258579258798,9.798839725249444,2.5e-05,0.0,0.0,0.0,2.5e-05,0.0,0.0,0.0,2.5e-05
406.54,20317,406,540000000,base,-4.077511887606788e-05,-0.0021275703916230856,-0.04157137254905855,0.9991332707732266,2.6030820491461885e-07,0.0,0.0,0.0,2.6030820491461885e-07,0.0,0.0,0.0,0.0,0.00678209171333476,-0.005369066408968179,0.000613464690135958,2.5e-05,0.0,0.0,0.0,2.5e-05,0.0,0.0,0.0,2.5e-05,0.0327069620350462,0.003166815274455365,9.808205096660533,2.5e-05,0.0,0.0,0.0,2.5e-05,0.0,0.0,0.0,2.5e-05
406.56,20318,406,560000000,base,-4.093493007833275e-05,-0.0021276238346585644,-0.04157136493211351,0.9991332709698095,2.6030820491461885e-07,0.0,0.0,0.0,2.6030820491461885e-07,0.0,0.0,0.0,0.0,0.006901200319399808,0.0056003786387073245,-0.002213891444726717,2.5e-05,0.0,0.0,0.0,2.5e-05,0.0,0.0,0.0,2.5e-05,0.038986153080108436,-0.006034935484451283,9.799763894151498,2.5e-05,0.0,0.0,0.0,2.5e-05,0.0,0.0,0.0,2.5e-05
406.58,20319,406,580000000,base,-4.117888452662723e-05,-0.0021277325298960227,-0.041571357135022455,0.9991332710527324,2.6030820491461885e-07,0.0,0.0,0.0,2.6030820491461885e-07,0.0,0.0,0.0,0.0,0.005740886689050661,0.012042725066195073,-7.596135686188253e-05,2.5e-05,0.0,0.0,0.0,2.5e-05,0.0,0.0,0.0,2.5e-05,0.04877280628810731,-0.001845313314032765,9.806482278390499,2.5e-05,0.0,0.0,0.0,2.5e-05,0.0,0.0,0.0,2.5e-05
406.6,20320,406,600000000,base,-4.1120598892477134e-05,-0.002127603149323049,-0.041571349984727855,0.9991332716281559,2.6030820491461885e-07,0.0,0.0,0.0,2.6030820491461885e-07,0.0,0.0,0.0,0.0,0.002489090179399349,0.008314212633902664,-0.004883769866859515,2.5e-05,0.0,0.0,0.0,2.5e-05,0.0,0.0,0.0,2.5e-05,0.0403446654019313,-0.004151830678441975,9.80263634878012,2.5e-05,0.0,0.0,0.0,2.5e-05,0.0,0.0,0.0,2.5e-05
406.62,20321,406,620000000,base,-4.123851554722476e-05,-0.0021275557883388067,-0.04157134245340218,0.9991332720375067,2.6030820491461885e-07,0.0,0.0,0.0,2.6030820491461885e-07,0.0,0.0,0.0,0.0,0.0014886924202370778,0.014117398497216875,-0.001984251567866135,2.5e-05,0.0,0.0,0.0,2.5e-05,0.0,0.0,0.0,2.5e-05,0.04078642057812401,0.0046870511861211986,9.804457846837545,2.5e-05,0.0,0.0,0.0,2.5e-05,0.0,0.0,0.0,2.5e-05
406.64,20322,406,640000000,base,-4.145392971282087e-05,-0.0021277940831138384,-0.041571334733065145,0.999133271842362,2.6030820491461885e-07,0.0,0.0,0.0,2.6030820491461885e-07,0.0,0.0,0.0,0.0,-0.01157349888380949,0.006170815142681615,0.006044631356016992,2.5e-05,0.0,0.0,0.0,2.5e-05,0.0,0.0,0.0,2.5e-05,0.03844343867694299,0.0033603819147766953,9.805257148169096,2.5e-05,0.0,0.0,0.0,2.5e-05,0.0,0.0,0.0,2.5e-05
406.66,20323,406,660000000,base,-4.121396594913188e-05,-0.002127848408218364,-0.041571328002525186,0.999133272016635,2.6030820491461885e-07,0.0,0.0,0.0,2.6030820491461885e-07,0.0,0.0,0.0,0.0,0.0010471157158109539,0.010358424175677065,0.004050293797806036,2.5e-05,0.0,0.0,0.0,2.5e-05,0.0,0.0,0.0,2.5e-05,0.04874068634914917,-0.00013544259185142068,9.799384277209132,2.5e-05,0.0,0.0,0.0,2.5e-05,0.0,0.0,0.0,2.5e-05
406.68,20324,406,680000000,base,-4.122546940971554e-05,-0.00212775850517576,-0.041571320704504144,0.9991332725112739,2.6030820491461885e-07,0.0,0.0,0.0,2.6030820491461885e-07,0.0,0.0,0.0,0.0,0.00161197618363179,0.019600785298438103,0.009074500630489877,2.5e-05,0.0,0.0,0.0,2.5e-05,0.0,0.0,0.0,2.5e-05,0.03976050780712329,0.00026966144815026693,9.789469416413837,2.5e-05,0.0,0.0,0.0,2.5e-05,0.0,0.0,0.0,2.5e-05
406.7,20325,406,700000000,base,-4.128390005226949e-05,-0.00212774217307388,-0.041571313310156226,0.9991332728513016,2.6030820491461885e-07,0.0,0.0,0.0,2.6030820491461885e-07,0.0,0.0,0.0,0.0,0.00022062197084067332,-0.005602990176143259,-8.070866483790877e-05,2.5e-05,0.0,0.0,0.0,2.5e-05,0.0,0.0,0.0,2.5e-05,0.037541985469493985,-0.007183720320073918,9.811812665304336,2.5e-05,0.0,0.0,0.0,2.5e-05,0.0,0.0,0.0,2.5e-05
406.72,20326,406,720000000,base,-4.123117290808864e-05,-0.0021276870353492106,-0.04157130615850093,0.9991332732684595,2.6030820491461885e-07,0.0,0.0,0.0,2.6030820491461885e-07,0.0,0.0,0.0,0.0,-0.0006908489829381499,0.021895063689274782,0.0018716622409752461,2.5e-05,0.0,0.0,0.0,2.5e-05,0.0,0.0,0.0,2.5e-05,0.04648086470719319,-0.004105145623360642,9.79919346017822,2.5e-05,0.0,0.0,0.0,2.5e-05,0.0,0.0,0.0,2.5e-05
406.74,20327,406,740000000,base,-4.129633633130838e-05,-0.002127673687153277,-0.04157129875097488,0.9991332736024011,2.6030820491461885e-07,0.0,0.0,0.0,2.6030820491461885e-07,0.0,0.0,0.0,0.0,0.004791907409582072,-0.001185838091887768,-0.004073170208531836,2.5e-05,0.0,0.0,0.0,2.5e-05,0.0,0.0,0.0,2.5e-05,0.05317583701966275,0.0022842074308024114,9.801106655853399,2.5e-05,0.0,0.0,0.0,2.5e-05,0.0,0.0,0.0,2.5e-05
406.76,20328,406,760000000,base,-4.13381333499202e-05,-0.002127593963201239,-0.041571291389814184,0.9991332740767217,2.6030820491461885e-07,0.0,0.0,0.0,2.6030820491461885e-07,0.0,0.0,0.0,0.0,0.007728146707443506,0.007325869800946456,0.0034634809713609688,2.5e-05,0.0,0.0,0.0,2.5e-05,0.0,0.0,0.0,2.5e-05,0.03665531466766455,-0.006235484612551493,9.80999734311234,2.5e-05,0.0,0.0,0.0,2.5e-05,0.0,0.0,0.0,2.5e-05
406.78,20329,406,780000000,base,-4.1338475357872276e-05,-0.0021275542291478706,-0.04157128412448406,0.9991332744636093,2.6030820491461885e-07,0.0,0.0,0.0,2.6030820491461885e-07,0.0,0.0,0.0,0.0,0.008618172746270584,0.0073302696080904525,-0.016584140973062936,2.5e-05,0.0,0.0,0.0,2.5e-05,0.0,0.0,0.0,2.5e-05,0.04561879603406589,0.004987305329844691,9.812639936782315,2.5e-05,0.0,0.0,0.0,2.5e-05,0.0,0.0,0.0,2.5e-05
406.8,20330,406,800000000,base,-4.1422604824449236e-05,-0.0021274951752724702,-0.04157127667311696,0.999133274895904,2.6030820491461885e-07,0.0,0.0,0.0,2.6030820491461885e-07,0.0,0.0,0.0,0.0,-0.0015712078852245194,0.011728810468844652,-0.010775973561354736,2.5e-05,0.0,0.0,0.0,2.5e-05,0.0,0.0,0.0,2.5e-05,0.044439060665023886,-0.007118878626882668,9.799959722363992,2.5e-05,0.0,0.0,0.0,2.5e-05,0.0,0.0,0.0,2.5e-05
406.82,20331,406,820000000,base,-4.1365267857909404e-05,-0.002127398982907298,-0.04157126953151805,0.9991332754002442,2.6030820491461885e-07,0.0,0.0,0.0,2.6030820491461885e-07,0.0,0.0,0.0,0.0,0.007594506844309892,0.009944547820892664,0.0074037475105477625,2.5e-05,0.0,0.0,0.0,2.5e-05,0.0,0.0,0.0,2.5e-05,0.037770156868011856,-0.005087722460928475,9.816512024159447,2.5e-05,0.0,0.0,0.0,2.5e-05,0.0,0.0,0.0,2.5e-05
406.84,20332,406,840000000,base,-4.131845022366845e-05,-0.002127305925756173,-0.04157126236768125,0.9991332758983865,2.6030820491461885e-07,0.0,0.0,0.0,2.6030820491461885e-07,0.0,0.0,0.0,0.0,0.01130676893062604,0.005345198286532298,0.0043036059867206326,2.5e-05,0.0,0.0,0.0,2.5e-05,0.0,0.0,0.0,2.5e-05,0.04341802085118719,0.0030235818583585717,9.806802057744315,2.5e-05,0.0,0.0,0.0,2.5e-05,0.0,0.0,0.0,2.5e-05
406.86,20333,406,860000000,base,-4.123927334982147e-05,-0.002127261046741005,-0.041571255280323655,0.9991332762920967,2.6030820491461885e-07,0.0,0.0,0.0,2.6030820491461885e-07,0.0,0.0,0.0,0.0,0.0061808460122565875,0.006012001811103436,-0.006108190190611696,2.5e-05,0.0,0.0,0.0,2.5e-05,0.0,0.0,0.0,2.5e-05,0.03572166493150967,-4.913710218006789e-05,9.809909804051838,2.5e-05,0.0,0.0,0.0,2.5e-05,0.0,0.0,0.0,2.5e-05
406.88,20334,406,880000000,base,-4.12186375008785e-05,-0.0021271251403193947,-0.041571248056255075,0.9991332768828723,2.6030820491461885e-07,0.0,0.0,0.0,2.6030820491461885e-07,0.0,0.0,0.0,0.0,0.0003833720873059024,0.010668292985763921,0.005567535270407893,2.5e-05,0.0,0.0,0.0,2.5e-05,0.0,0.0,0.0,2.5e-05,0.0362279604895083,0.00024062926020188826,9.808170312500163,2.5e-05,0.0,0.0,0.0,2.5e-05,0.0,0.0,0.0,2.5e-05
406.9,20335,406,900000000,base,-4.137220961975846e-05,-0.002127161701015035,-0.04157124046366006,0.9991332771145955,2.6030820491461885e-07,0.0,0.0,0.0,2.6030820491461885e-07,0.0,0.0,0.0,0.0,-0.00017188516469923357,0.00948154353005454,-0.007696171958546204,2.5e-05,0.0,0.0,0.0,2.5e-05,0.0,0.0,0.0,2.5e-05,0.041031622160731515,0.0009597375889027206,9.807295101670455,2.5e-05,0.0,0.0,0.0,2.5e-05,0.0,0.0,0.0,2.5e-05
406.92,20336,406,920000000,base,-4.147000231584213e-05,-0.002127137741010853,-0.04157123298952533,0.9991332774725304,2.6030820491461885e-07,0.0,0.0,0.0,2.6030820491461885e-07,0.0,0.0,0.0,0.0,0.01439186916343209,0.00964071789559618,-0.0017949827579717224,2.5e-05,0.0,0.0,0.0,2.5e-05,0.0,0.0,0.0,2.5e-05,0.03895627584557533,0.004593308099327508,9.815819434517252,2.5e-05,0.0,0.0,0.0,2.5e-05,0.0,0.0,0.0,2.5e-05
406.94,20337,406,940000000,base,-4.1283903211884324e-05,-0.0021271142220215754,-0.04157122614302575,0.9991332778151727,2.6030820491461885e-07,0.0,0.0,0.0,2.6030820491461885e-07,0.0,0.0,0.0,0.0,0.005998749878900071,0.002469235464668428,-0.009348523252243706,2.5e-05,0.0,0.0,0.0,2.5e-05,0.0,0.0,0.0,2.5e-05,0.036019948150417175,0.0017322000058702615,9.809460403910888,2.5e-05,0.0,0.0,0.0,2.5e-05,0.0,0.0,0.0,2.5e-05
406.96,20338,406,960000000,base,-4.129948057828324e-05,-0.0021270331168940023,-0.04157121884673941,0.999133278290774,2.6030820491461885e-07,0.0,0.0,0.0,2.6030820491461885e-07,0.0,0.0,0.0,0.0,0.005116922569408346,0.005084654916775696,0.0019116554500297808,2.5e-05,0.0,0.0,0.0,2.5e-05,0.0,0.0,0.0,2.5e-05,0.03954341791665775,0.00915043347397329,9.803685797562796,2.5e-05,0.0,0.0,0.0,2.5e-05,0.0,0.0,0.0,2.5e-05
406.98,20339,406,980000000,base,-4.118404550405604e-05,-0.0021270211780722876,-0.04157121184665729,0.9991332786122094,2.6030820491461885e-07,0.0,0.0,0.0,2.6030820491461885e-07,0.0,0.0,0.0,0.0,0.010370578238360502,0.014372672316863452,-0.008998088824116757,2.5e-05,0.0,0.0,0.0,2.5e-05,0.0,0.0,0.0,2.5e-05,0.047192936805891324,0.004745125109604802,9.801984651958907,2.5e-05,0.0,0.0,0.0,2.5e-05,0.0,0.0,0.0,2.5e-05
407.0,20340,407,0,base,-4.123349579599011e-05,-0.0021272386489822673,-0.041571204503737524,0.9991332784526987,2.6030820491461885e-07,0.0,0.0,0.0,2.6030820491461885e-07,0.0,0.0,0.0,0.0,0.006984526503849234,-0.0038096635486259928,-0.004065307768681145,2.5e-05,0.0,0.0,0.0,2.5e-05,0.0,0.0,0.0,2.5e-05,0.040234627302043,0.002813987268356242,9.808835348775947,2.5e-05,0.0,0.0,0.0,2.5e-05,0.0,0.0,0.0,2.5e-05
407.02,20341,407,20000000,base,-4.133517884928294e-05,-0.002127223964989831,-0.04157119702539371,0.9991332787909137,2.6030820491461885e-07,0.0,0.0,0.0,2.6030820491461885e-07,0.0,0.0,0.0,0.0,0.001063849154107356,-0.0007899266372348081,-0.00390916063608546,2.5e-05,0.0,0.0,0.0,2.5e-05,0.0,0.0,0.0,2.5e-05,0.04511666311748181,0.004475553894031736,9.807985123794792,2.5e-05,0.0,0.0,0.0,2.5e-05,0.0,0.0,0.0,2.5e-05
407.04,20342,407,40000000,base,-4.134975864569943e-05,-0.0021270967338891827,-0.04157118973001798,0.9991332793647266,2.6030820491461885e-07,0.0,0.0,0.0,2.6030820491461885e-07,0.0,0.0,0.0,0.0,0.007877944608646692,0.0078213414717971,-0.001210080447970594,2.5e-05,0.0,0.0,0.0,2.5e-05,0.0,0.0,0.0,2.5e-05,0.03907407052578407,0.0047920240739696505,9.804415744465086,2.5e-05,0.0,0.0,0.0,2.5e-05,0.0,0.0,0.0,2.5e-05
407.06,20343,407,60000000,base,-4.111166995858332e-05,-0.002127042009674864,-0.041571182999784524,0.9991332797710815,2.6030820491461885e-07,0.0,0.0,0.0,2.6030820491461885e-07,0.0,0.0,0.0,0.0,-0.0017273971807824585,0.0013236048418384925,-0.0030048544738216503,2.5e-05,0.0,0.0,0.0,2.5e-05,0.0,0.0,0.0,2.5e-05,0.04920039821163684,0.004756925214298083,9.80713553558867,2.5e-05,0.0,0.0,0.0,2.5e-05,0.0,0.0,0.0,2.5e-05
407.08,20344,407,80000000,base,-4.108141687279508e-05,-0.002127130934215008,-0.04157117582419009,0.9991332798815683,2.6030820491461885e-07,0.0,0.0,0.0,2.6030820491461885e-07,0.0,0.0,0.0,0.0,0.0039796255901023226,0.009013927948384026,-0.008128683438975628,2.5e-05,0.0,0.0,0.0,2.5e-05,0.0,0.0,0.0,2.5e-05,0.04236447573235461,0.008979239669685245,9.80293342117324,2.5e-05,0.0,0.0,0.0,2.5e-05,0.0,0.0,0.0,2.5e-05
407.1,20345,407,100000000,base,-4.0927041063078694e-05,-0.002127201300193245,-0.041571168921727415,0.9991332800252862,2.6030820491461885e-07,0.0,0.0,0.0,2.6030820491461885e-07,0.0,0.0,0.0,0.0,-0.007376864461935032,0.008041014237550591,-0.00034282188971702053,2.5e-05,0.0,0.0,0.0,2.5e-05,0.0,0.0,0.0,2.5e-05,0.03639663029340799,0.005230942265525774,9.802670268685574,2.5e-05,0.0,0.0,0.0,2.5e-05,0.0,0.0,0.0,2.5e-05
407.12,20346,407,120000000,base,-4.122394941317019e-05,-0.002127273246201254,-0.041571161023600485,0.9991332801885201,2.6030820491461885e-07,0.0,0.0,0.0,2.6030820491461885e-07,0.0,0.0,0.0,0.0,0.0009657778076317203,0.003954682585324081,-0.0011928479471611068,2.5e-05,0.0,0.0,0.0,2.5e-05,0.0,0.0,0.0,2.5e-05,0.035487941579329954,0.003178932672738995,9.807573384232944,2.5e-05,0.0,0.0,0.0,2.5e-05,0.0,0.0,0.0,2.5e-05
407.14,20347,407,140000000,base,-4.1251355152716266e-05,-0.0021273374052802703,-0.041571153720595,0.9991332803546424,2.6030820491461885e-07,0.0,0.0,0.0,2.6030820491461885e-07,0.0,0.0,0.0,0.0,0.0024036461471364694,0.016976848258206324,-0.006237398698253717,2.5e-05,0.0,0.0,0.0,2.5e-05,0.0,0.0,0.0,2.5e-05,0.04382815663483474,0.005099231675474619,9.805617673292332,2.5e-05,0.0,0.0,0.0,2.5e-05,0.0,0.0,0.0,2.5e-05
407.16,20348,407,160000000,base,-4.122246809862171e-05,-0.0021274652252842342,-0.041571146548306445,0.9991332803820931,2.6030820491461885e-07,0.0,0.0,0.0,2.6030820491461885e-07,0.0,0.0,0.0,0.0,0.004711600992987287,0.010671521083582401,-0.000927309356862186,2.5e-05,0.0,0.0,0.0,2.5e-05,0.0,0.0,0.0,2.5e-05,0.04200862325133365,-0.001186768839706337,9.811374289251686,2.5e-05,0.0,0.0,0.0,2.5e-05,0.0,0.0,0.0,2.5e-05
407.18,20349,407,180000000,base,-4.12603976707835e-05,-0.0021277544038379908,-0.041571139243636236,0.9991332800686618,2.6030820491461885e-07,0.0,0.0,0.0,2.6030820491461885e-07,0.0,0.0,0.0,0.0,-0.0011690219920901025,0.00206695054029902,0.0002520972534642866,2.5e-05,0.0,0.0,0.0,2.5e-05,0.0,0.0,0.0,2.5e-05,0.038250837285051346,-0.006634302388639065,9.799432080001445,2.5e-05,0.0,0.0,0.0,2.5e-05,0.0,0.0,0.0,2.5e-05
407.2,20350,407,200000000,base,-4.1152815446848245e-05,-0.0021275878898104955,-0.041571132220175826,0.9991332807199194,2.6030820491461885e-07,0.0,0.0,0.0,2.6030820491461885e-07,0.0,0.0,0.0,0.0,0.0012320386825765267,0.009519453724252414,0.0006719762153623305,2.5e-05,0.0,0.0,0.0,2.5e-05,0.0,0.0,0.0,2.5e-05,0.038031453128038906,-0.0025361040791935185,9.803747533749675,2.5e-05,0.0,0.0,0.0,2.5e-05,0.0,0.0,0.0,2.5e-05
407.22,20351,407,220000000,base,-4.111195434295446e-05,-0.0021274434536912522,-0.04157112505206773,0.9991332813274032,2.6030820491461885e-07,0.0,0.0,0.0,2.6030820491461885e-07,0.0,0.0,0.0,0.0,0.0018460465967275784,-0.0014492969313519184,-0.005185506013003315,2.5e-05,0.0,0.0,0.0,2.5e-05,0.0,0.0,0.0,2.5e-05,0.035316400675594814,0.0013353979094427955,9.80135636732852,2.5e-05,0.0,0.0,0.0,2.5e-05,0.0,0.0,0.0,2.5e-05
407.24,20352,407,240000000,base,-4.1137182942142944e-05,-0.0021277939824679484,-0.0415711177830683,0.9991332808823689,2.6030820491461885e-07,0.0,0.0,0.0,2.6030820491461885e-07,0.0,0.0,0.0,0.0,0.008669494803304471,0.0013306502713167896,-0.0009111378513822352,2.5e-05,0.0,0.0,0.0,2.5e-05,0.0,0.0,0.0,2.5e-05,0.04194347932270416,0.0020711713262428445,9.80183745784894,2.5e-05,0.0,0.0,0.0,2.5e-05,0.0,0.0,0.0,2.5e-05
407.26,20353,407,260000000,base,-4.1090560414454176e-05,-0.0021279729293363255,-0.041571110658067546,0.9991332807996302,2.6030820491461885e-07,0.0,0.0,0.0,2.6030820491461885e-07,0.0,0.0,0.0,0.0,0.007472861443722019,0.005845506562036948,-0.00860608892867652,2.5e-05,0.0,0.0,0.0,2.5e-05,0.0,0.0,0.0,2.5e-05,0.042717616981603826,-0.00526118213534306,9.80820327980221,2.5e-05,0.0,0.0,0.0,2.5e-05,0.0,0.0,0.0,2.5e-05
407.28,20354,407,280000000,base,-4.088668324823635e-05,-0.0021278650283855396,-0.041571103855329805,0.9991332813208402,2.6030820491461885e-07,0.0,0.0,0.0,2.6030820491461885e-07,0.0,0.0,0.0,0.0,0.004972414189654565,-0.002914709435046199,-0.001973878362798607,2.5e-05,0.0,0.0,0.0,2.5e-05,0.0,0.0,0.0,2.5e-05,0.03710586064036198,0.004723086199181576,9.803159333368225,2.5e-05,0.0,0.0,0.0,2.5e-05,0.0,0.0,0.0,2.5e-05
407.3,20355,407,300000000,base,-4.0959901226420435e-05,-0.0021278930224086895,-0.04157109645359689,0.999133281566187,2.6030820491461885e-07,0.0,0.0,0.0,2.6030820491461885e-07,0.0,0.0,0.0,0.0,-0.0025035984772352696,0.009640445516422397,-0.001071221254763394,2.5e-05,0.0,0.0,0.0,2.5e-05,0.0,0.0,0.0,2.5e-05,0.04720281921843653,-0.005062395551832872,9.803936187945952,2.5e-05,0.0,0.0,0.0,2.5e-05,0.0,0.0,0.0,2.5e-05
407.32,20356,407,320000000,base,-4.086547554520763e-05,-0.0021278902434997858,-0.04157108942000345,0.9991332818686198,2.6030820491461885e-07,0.0,0.0,0.0,2.6030820491461885e-07,0.0,0.0,0.0,0.0,-0.004771102159998798,0.0019888251277864226,0.0018986719573513581,2.5e-05,0.0,0.0,0.0,2.5e-05,0.0,0.0,0.0,2.5e-05,0.04605590810082366,0.010665352882313094,9.803083793954888,2.5e-05,0.0,0.0,0.0,2.5e-05,0.0,0.0,0.0,2.5e-05
407.34,20357,407,340000000,base,-4.0792313426091855e-05,-0.0021278286795101157,-0.04157108233489876,0.9991332822975133,2.6030820491461885e-07,0.0,0.0,0.0,2.6030820491461885e-07,0.0,0.0,0.0,0.0,0.00985572825397493,0.006476915566563366,0.002923114416990679,2.5e-05,0.0,0.0,0.0,2.5e-05,0.0,0.0,0.0,2.5e-05,0.04328208082328802,0.0022124868937928826,9.80484784570309,2.5e-05,0.0,0.0,0.0,2.5e-05,0.0,0.0,0.0,2.5e-05
407.36,20358,407,360000000,base,-4.094307592106813e-05,-0.002128067171507133,-0.04157107478291531,0.9991332820976243,2.6030820491461885e-07,0.0,0.0,0.0,2.6030820491461885e-07,0.0,0.0,0.0,0.0,-0.003428125201912791,0.006447472688413758,0.003138245399179864,2.5e-05,0.0,0.0,0.0,2.5e-05,0.0,0.0,0.0,2.5e-05,0.04446778224607626,-0.0008999560447703896,9.80653900465395,2.5e-05,0.0,0.0,0.0,2.5e-05,0.0,0.0,0.0,2.5e-05
407.38,20359,407,380000000,base,-4.098603939984006e-05,-0.0021281436536131587,-0.041571067455167254,0.9991332822378466,2.6030820491461885e-07,0.0,0.0,0.0,2.6030820491461885e-07,0.0,0.0,0.0,0.0,0.0038836873904083526,0.009441225308822836,0.008241827667270652,2.5e-05,0.0,0.0,0.0,2.5e-05,0.0,0.0,0.0,2.5e-05,0.04299882579193807,-0.0022689290503788108,9.804599560056518,2.5e-05,0.0,0.0,0.0,2.5e-05,0.0,0.0,0.0,2.5e-05
407.4,20360,407,400000000,base,-4.109438802496484e-05,-0.0021280854034482657,-0.04157105997167632,0.9991332826688332,2.6030820491461885e-07,0.0,0.0,0.0,2.6030820491461885e-07,0.0,0.0,0.0,0.0,-0.010574069825878388,0.005897541807191652,0.0073828346271938745,2.5e-05,0.0,0.0,0.0,2.5e-05,0.0,0.0,0.0,2.5e-05,0.040712362437840044,-0.009469972145464484,9.805570963224145,2.5e-05,0.0,0.0,0.0,2.5e-05,0.0,0.0,0.0,2.5e-05
407.42,20361,407,420000000,base,-4.1105813111911556e-05,-0.0021281078540874862,-0.04157105271014756,0.9991332829226758,2.6030820491461885e-07,0.0,0.0,0.0,2.6030820491461885e-07,0.0,0.0,0.0,0.0,0.0038068835748652865,0.010432136117904169,-0.005305168278917678,2.5e-05,0.0,0.0,0.0,2.5e-05,0.0,0.0,0.0,2.5e-05,0.03521363501864275,0.003870491914759708,9.811237385048257,2.5e-05,0.0,0.0,0.0,2.5e-05,0.0,0.0,0.0,2.5e-05
407.44,20362,407,440000000,base,-4.143693596657178e-05,-0.0021281345801021567,-0.04157104474375371,0.9991332831835309,2.6030820491461885e-07,0.0,0.0,0.0,2.6030820491461885e-07,0.0,0.0,0.0,0.0,-2.1893942444545407e-05,0.007948851762909933,0.00020517217999498766,2.5e-05,0.0,0.0,0.0,2.5e-05,0.0,0.0,0.0,2.5e-05,0.026619310411892975,-0.010184256156847921,9.800650658748342,2.5e-05,0.0,0.0,0.0,2.5e-05,0.0,0.0,0.0,2.5e-05
407.46,20363,407,460000000,base,-4.142333604257941e-05,-0.0021280883448710894,-0.04157103753274847,0.9991332835826033,2.6030820491461885e-07,0.0,0.0,0.0,2.6030820491461885e-07,0.0,0.0,0.0,0.0,-0.0002129678782632773,-0.0033157870532277145,-0.004928470066445581,2.5e-05,0.0,0.0,0.0,2.5e-05,0.0,0.0,0.0,2.5e-05,0.04896677456794468,0.004600244828591726,9.803138716282998,2.5e-05,0.0,0.0,0.0,2.5e-05,0.0,0.0,0.0,2.5e-05
407.48,20364,407,480000000,base,-4.138817325424113e-05,-0.00212811604420612,-0.04157103037668957,0.9991332838228049,2.6030820491461885e-07,0.0,0.0,0.0,2.6030820491461885e-07,0.0,0.0,0.0,0.0,0.0139591536119775,0.01024550537329343,-0.0012902566709447052,2.5e-05,0.0,0.0,0.0,2.5e-05,0.0,0.0,0.0,2.5e-05,0.0444715215567266,0.001490524827161371,9.805933147708917,2.5e-05,0.0,0.0,0.0,2.5e-05,0.0,0.0,0.0,2.5e-05
407.504,20365,407,500000000,base,-4.1526929418164306e-05,-0.002128154335802625,-0.0415710228382384,0.9991332840491403,2.6030820491461885e-07,0.0,0.0,0.0,2.6030820491461885e-07,0.0,0.0,0.0,0.0,-0.002062605586553955,0.009520384577588852,-0.010369348818628492,2.5e-05,0.0,0.0,0.0,2.5e-05,0.0,0.0,0.0,2.5e-05,0.044096314901018716,-0.0016593544149797422,9.797407246202521,2.5e-05,0.0,0.0,0.0,2.5e-05,0.0,0.0,0.0,2.5e-05
407.52,20366,407,520000000,base,-4.151690285660399e-05,-0.0021281497776588524,-0.0415710156251996,0.9991332843593791,2.6030820491461885e-07,0.0,0.0,0.0,2.6030820491461885e-07,0.0,0.0,0.0,0.0,0.0034812985068175,0.007519967077760767,-0.0038857588667880532,2.5e-05,0.0,0.0,0.0,2.5e-05,0.0,0.0,0.0,2.5e-05,0.035373791635961216,-0.005314711457896155,9.802062764064935,2.5e-05,0.0,0.0,0.0,2.5e-05,0.0,0.0,0.0,2.5e-05
407.54,20367,407,540000000,base,-4.148221831086865e-05,-0.0021280997612608075,-0.04157100846324601,0.9991332847653411,2.6030820491461885e-07,0.0,0.0,0.0,2.6030820491461885e-07,0.0,0.0,0.0,0.0,0.004195323088208672,0.00916206611278211,-0.002394098219357575,2.5e-05,0.0,0.0,0.0,2.5e-05,0.0,0.0,0.0,2.5e-05,0.044999849261800055,0.008707814095070644,9.806499772314185,2.5e-05,0.0,0.0,0.0,2.5e-05,0.0,0.0,0.0,2.5e-05
407.56,20368,407,560000000,base,-4.165182324550826e-05,-0.0021282067756617927,-0.041571000864953356,0.9991332848464872,2.6030820491461885e-07,0.0,0.0,0.0,2.6030820491461885e-07,0.0,0.0,0.0,0.0,0.0035171509758533458,0.003579922706150702,-0.0063953688444827956,2.5e-05,0.0,0.0,0.0,2.5e-05,0.0,0.0,0.0,2.5e-05,0.034584869862944165,-0.005913582182364114,9.805753681274757,2.5e-05,0.0,0.0,0.0,2.5e-05,0.0,0.0,0.0,2.5e-05
407.58,20369,407,580000000,base,-4.178759894412549e-05,-0.0021280808504599313,-0.04157099332120037,0.9991332854229107,2.6030820491461885e-07,0.0,0.0,0.0,2.6030820491461885e-07,0.0,0.0,0.0,0.0,-0.0019493770359267247,0.0005111298213198376,-0.0036553708342134898,2.5e-05,0.0,0.0,0.0,2.5e-05,0.0,0.0,0.0,2.5e-05,0.042150316968994336,0.00333961839503137,9.807007479454803,2.5e-05,0.0,0.0,0.0,2.5e-05,0.0,0.0,0.0,2.5e-05
407.6,20370,407,600000000,base,-4.179432249075678e-05,-0.0021280609974620762,-0.04157098607263346,0.9991332857665058,2.6030820491461885e-07,0.0,0.0,0.0,2.6030820491461885e-07,0.0,0.0,0.0,0.0,0.000741359801679539,0.0005992740891913699,0.00015902205059884975,2.5e-05,0.0,0.0,0.0,2.5e-05,0.0,0.0,0.0,2.5e-05,0.05426526125348651,-0.002357305887950156,9.809729629621009,2.5e-05,0.0,0.0,0.0,2.5e-05,0.0,0.0,0.0,2.5e-05
407.62,20371,407,620000000,base,-4.1877044185455735e-05,-0.0021280240688305785,-0.04157097865542256,0.9991332861503045,2.6030820491461885e-07,0.0,0.0,0.0,2.6030820491461885e-07,0.0,0.0,0.0,0.0,0.006491702345722039,0.00916201552457143,0.005262866238153914,2.5e-05,0.0,0.0,0.0,2.5e-05,0.0,0.0,0.0,2.5e-05,0.04081784386359624,-0.0009695737181887639,9.805019950049306,2.5e-05,0.0,0.0,0.0,2.5e-05,0.0,0.0,0.0,2.5e-05
407.64,20372,407,640000000,base,-4.181988982940484e-05,-0.002127853581359946,-0.04157097153582909,0.9991332868120252,2.6030820491461885e-07,0.0,0.0,0.0,2.6030820491461885e-07,0.0,0.0,0.0,0.0,0.011380595298225202,-0.005416178540825905,-0.004910340244101266,2.5e-05,0.0,0.0,0.0,2.5e-05,0.0,0.0,0.0,2.5e-05,0.032565645671556766,0.0027572478321274217,9.8016187375316,2.5e-05,0.0,0.0,0.0,2.5e-05,0.0,0.0,0.0,2.5e-05
407.66,20373,407,660000000,base,-4.205489115502664e-05,-0.0021276239705321073,-0.041570963766494246,0.9991332876143958,2.6030820491461885e-07,0.0,0.0,0.0,2.6030820491461885e-07,0.0,0.0,0.0,0.0,0.004195323919578383,0.008703281390125496,0.002191758081272304,2.5e-05,0.0,0.0,0.0,2.5e-05,0.0,0.0,0.0,2.5e-05,0.040903346897255936,-0.001605126506351663,9.812556790833566,2.5e-05,0.0,0.0,0.0,2.5e-05,0.0,0.0,0.0,2.5e-05
407.68,20374,407,680000000,base,-4.2098611221382e-05,-0.0021276698713964368,-0.041570956444950596,0.9991332878194367,2.6030820491461885e-07,0.0,0.0,0.0,2.6030820491461885e-07,0.0,0.0,0.0,0.0,0.004771964094059528,0.005934601181926706,-0.0013349052218959083,2.5e-05,0.0,0.0,0.0,2.5e-05,0.0,0.0,0.0,2.5e-05,0.03762315299194964,0.0013816267606265738,9.805722119969259,2.5e-05,0.0,0.0,0.0,2.5e-05,0.0,0.0,0.0,2.5e-05
407.7,20375,407,700000000,base,-4.217222776025391e-05,-0.0021276462313981202,-0.04157094905186273,0.9991332881742778,2.6030820491461885e-07,0.0,0.0,0.0,2.6030820491461885e-07,0.0,0.0,0.0,0.0,0.006702320175138924,0.005184217150389248,-0.000984209798084782,2.5e-05,0.0,0.0,0.0,2.5e-05,0.0,0.0,0.0,2.5e-05,0.045040787672157266,-0.0042170324378597605,9.803617761685645,2.5e-05,0.0,0.0,0.0,2.5e-05,0.0,0.0,0.0,2.5e-05
407.72,20376,407,720000000,base,-4.214978682443305e-05,-0.0021276686682383666,-0.0415709418757299,0.9991332884260229,2.6030820491461885e-07,0.0,0.0,0.0,2.6030820491461885e-07,0.0,0.0,0.0,0.0,0.00424320544813476,0.0199418626071471,0.0037564678467328335,2.5e-05,0.0,0.0,0.0,2.5e-05,0.0,0.0,0.0,2.5e-05,0.042369247960952344,0.0014011334971634755,9.808316742305998,2.5e-05,0.0,0.0,0.0,2.5e-05,0.0,0.0,0.0,2.5e-05
407.74,20377,407,740000000,base,-4.2153366759886764e-05,-0.002127653914567484,-0.04157093463951023,0.9991332887583674,2.6030820491461885e-07,0.0,0.0,0.0,2.6030820491461885e-07,0.0,0.0,0.0,0.0,0.0006941371052602999,0.007446144312836309,-0.0001401278991885279,2.5e-05,0.0,0.0,0.0,2.5e-05,0.0,0.0,0.0,2.5e-05,0.040402038522316025,-0.0013671658721786332,9.807420182578745,2.5e-05,0.0,0.0,0.0,2.5e-05,0.0,0.0,0.0,2.5e-05
407.76,20378,407,760000000,base,-4.195212770028342e-05,-0.002127443701263479,-0.041570927838767126,0.999133289497423,2.6030820491461885e-07,0.0,0.0,0.0,2.6030820491461885e-07,0.0,0.0,0.0,0.0,0.005129578364779969,0.009306932972163657,0.008920617367871763,2.5e-05,0.0,0.0,0.0,2.5e-05,0.0,0.0,0.0,2.5e-05,0.04673924192321951,0.003364827406299512,9.806189071624097,2.5e-05,0.0,0.0,0.0,2.5e-05,0.0,0.0,0.0,2.5e-05
407.78,20379,407,780000000,base,-4.2070144134389816e-05,-0.002127468246928993,-0.04157092035477992,0.9991332897515814,2.6030820491461885e-07,0.0,0.0,0.0,2.6030820491461885e-07,0.0,0.0,0.0,0.0,-0.012230267671414897,0.009863926950373136,-0.0013010013622967885,2.5e-05,0.0,0.0,0.0,2.5e-05,0.0,0.0,0.0,2.5e-05,0.033153912108062275,-0.003690565134883717,9.80641340511686,2.5e-05,0.0,0.0,0.0,2.5e-05,0.0,0.0,0.0,2.5e-05
407.8,20380,407,800000000,base,-4.204653435762985e-05,-0.002127560423764152,-0.041570913190307,0.9991332898543899,2.6030820491461885e-07,0.0,0.0,0.0,2.6030820491461885e-07,0.0,0.0,0.0,0.0,0.01017607016711344,0.002757029574573451,-0.0006644781309880491,2.5e-05,0.0,0.0,0.0,2.5e-05,0.0,0.0,0.0,2.5e-05,0.03148233952402936,0.007904277595539643,9.799473940481597,2.5e-05,0.0,0.0,0.0,2.5e-05,0.0,0.0,0.0,2.5e-05
407.82,20381,407,820000000,base,-4.183861420205781e-05,-0.002127385680456762,-0.04157090640961445,0.9991332905173262,2.6030820491461885e-07,0.0,0.0,0.0,2.6030820491461885e-07,0.0,0.0,0.0,0.0,-0.0007014740843737867,0.0005800614907266327,-0.004850002808539184,2.5e-05,0.0,0.0,0.0,2.5e-05,0.0,0.0,0.0,2.5e-05,0.03074059815434349,0.006260808159583639,9.809196156395155,2.5e-05,0.0,0.0,0.0,2.5e-05,0.0,0.0,0.0,2.5e-05
407.84,20382,407,840000000,base,-4.204315774677422e-05,-0.0021275682995103022,-0.04157089875084542,0.9991332904385436,2.6030820491461885e-07,0.0,0.0,0.0,2.6030820491461885e-07,0.0,0.0,0.0,0.0,0.00481318717310927,0.011125924596943393,0.0019749649221961645,2.5e-05,0.0,0.0,0.0,2.5e-05,0.0,0.0,0.0,2.5e-05,0.04218513298991035,-0.0037636123055640727,9.807583122199043,2.5e-05,0.0,0.0,0.0,2.5e-05,0.0,0.0,0.0,2.5e-05
407.86,20383,407,860000000,base,-4.208257520631529e-05,-0.0021276834431572704,-0.04157089145137156,0.9991332904953979,2.6030820491461885e-07,0.0,0.0,0.0,2.6030820491461885e-07,0.0,0.0,0.0,0.0,0.006415227064741765,0.014458170990956712,0.00630409134170759,2.5e-05,0.0,0.0,0.0,2.5e-05,0.0,0.0,0.0,2.5e-05,0.03824036612483491,0.0013463210372313943,9.8031616712022,2.5e-05,0.0,0.0,0.0,2.5e-05,0.0,0.0,0.0,2.5e-05
407.88,20384,407,880000000,base,-4.2043587798124556e-05,-0.002127757361091961,-0.04157088432204583,0.9991332906362554,2.6030820491461885e-07,0.0,0.0,0.0,2.6030820491461885e-07,0.0,0.0,0.0,0.0,0.007202327238368137,0.004762807084213479,0.001352337129557526,2.5e-05,0.0,0.0,0.0,2.5e-05,0.0,0.0,0.0,2.5e-05,0.041249012836327405,0.0028690532763380678,9.815230706466355,2.5e-05,0.0,0.0,0.0,2.5e-05,0.0,0.0,0.0,2.5e-05
407.9,20385,407,900000000,base,-4.200657075937877e-05,-0.002127832969830932,-0.04157087718922699,0.9991332907735677,2.6030820491461885e-07,0.0,0.0,0.0,2.6030820491461885e-07,0.0,0.0,0.0,0.0,0.007659709916066548,0.011391424445617263,0.0008933054780281154,2.5e-05,0.0,0.0,0.0,2.5e-05,0.0,0.0,0.0,2.5e-05,0.044038795345823306,-0.00283578916222549,9.804585872989867,2.5e-05,0.0,0.0,0.0,2.5e-05,0.0,0.0,0.0,2.5e-05
407.92,20386,407,920000000,base,-4.2027161176303636e-05,-0.0021279743248375817,-0.041570869935796166,0.9991332907734441,2.6030820491461885e-07,0.0,0.0,0.0,2.6030820491461885e-07,0.0,0.0,0.0,0.0,0.005074480632781657,0.004060642069097265,-0.006324461969402095,2.5e-05,0.0,0.0,0.0,2.5e-05,0.0,0.0,0.0,2.5e-05,0.039343328000695864,0.0038669275845028424,9.812001074296909,2.5e-05,0.0,0.0,0.0,2.5e-05,0.0,0.0,0.0,2.5e-05
407.94,20387,407,940000000,base,-4.2006237378482794e-05,-0.0021278661124838043,-0.04157086275237441,0.9991332913036711,2.6030820491461885e-07,0.0,0.0,0.0,2.6030820491461885e-07,0.0,0.0,0.0,0.0,0.0009721611968084264,0.010139152663663087,0.00222636941752439,2.5e-05,0.0,0.0,0.0,2.5e-05,0.0,0.0,0.0,2.5e-05,0.04138272512395722,-0.0008222971256023461,9.80080173080181,2.5e-05,0.0,0.0,0.0,2.5e-05,0.0,0.0,0.0,2.5e-05
407.96,20388,407,960000000,base,-4.196395706163035e-05,-0.002127986363831174,-0.041570855637298676,0.9991332913453761,2.6030820491461885e-07,0.0,0.0,0.0,2.6030820491461885e-07,0.0,0.0,0.0,0.0,0.008214054855828594,0.0018410872264311064,0.00027139202338968783,2.5e-05,0.0,0.0,0.0,2.5e-05,0.0,0.0,0.0,2.5e-05,0.04694650579300892,-0.0021745475353284168,9.813554313853714,2.5e-05,0.0,0.0,0.0,2.5e-05,0.0,0.0,0.0,2.5e-05
407.98,20389,407,980000000,base,-4.199772531430782e-05,-0.0021280187844719993,-0.04157084834712174,0.9991332915782282,2.6030820491461885e-07,0.0,0.0,0.0,2.6030820491461885e-07,0.0,0.0,0.0,0.0,-0.007331027796523399,0.010978441868917783,0.0034762048698834527,2.5e-05,0.0,0.0,0.0,2.5e-05,0.0,0.0,0.0,2.5e-05,0.03527913648607586,-0.006787755471677723,9.80583159503775,2.5e-05,0.0,0.0,0.0,2.5e-05,0.0,0.0,0.0,2.5e-05
408.0,20390,408,0,base,-4.213233927463552e-05,-0.0021277570089261056,-0.04157084080858389,0.9991332924437283,2.6030820491461885e-07,0.0,0.0,0.0,2.6030820491461885e-07,0.0,0.0,0.0,0.0,0.011087854828791028,0.01203466144428688,-0.011693551878868048,2.5e-05,0.0,0.0,0.0,2.5e-05,0.0,0.0,0.0,2.5e-05,0.0457391256045457,0.0014128776286093244,9.810014735588089,2.5e-05,0.0,0.0,0.0,2.5e-05,0.0,0.0,0.0,2.5e-05
408.02,20391,408,20000000,base,-4.200006252986745e-05,-0.0021278566227748504,-0.04157083389251159,0.9991332925249108,2.6030820491461885e-07,0.0,0.0,0.0,2.6030820491461885e-07,0.0,0.0,0.0,0.0,-0.0008594060631838497,0.009511711117197525,0.000761738936606478,2.5e-05,0.0,0.0,0.0,2.5e-05,0.0,0.0,0.0,2.5e-05,0.04032221856684281,0.00654335566762556,9.79678651420629,2.5e-05,0.0,0.0,0.0,2.5e-05,0.0,0.0,0.0,2.5e-05
